subject,phase,block_type,trial_global,trial_block,condition,event,stim_class,stim,resp,rt,acc,err,all_keys,onset_abs,onset_total,onset_r1,onset_r2,target_onset_block,drift
S004,1,Run Start,0,0,Congruent,Run 1 開始,,,,,,EVENT,,1763877777.2181308,0.00,0.00,-,,
S004,1,練習,0,0,Congruent,Run1練習開始,,,,,,EVENT,,1763877857.5060418,14.00,14.00,-,,
S004,1,練習,1,1,Congruent,,高 負向 文字,驚慌,b,0.7504800999886356,1,None,b:0.750,16.07149629999185,20.07,20.07,-,16.06063650001306,0.011935299960896373
S004,1,練習,2,2,Congruent,,低 負向 文字,虛弱,b,0.8187661999836564,1,None,b:0.819,22.0727065000101,26.07,26.07,-,22.06063650001306,0.012948699994012713
S004,1,練習,3,3,Congruent,,高 正向 文字,警覺,b,0.6006884999806061,0,Wrong,b:0.601,28.074427800020203,32.08,32.08,-,28.06063650001306,0.014863599964883178
S004,1,練習,4,4,Congruent,,Straight 圖片,Gemini_Generated_Image_m8js26m8js26m8js (1).png,y,0.8678744999924675,1,None,y:0.868,34.06072810001206,38.06,38.06,-,34.06063650001306,0.00028390000807121396
S004,1,練習,5,5,Congruent,,Gay 圖片,Gemini_Generated_Image_bmcam5bmcam5bmca (2).png,b,0.7342541000107303,1,None,b:0.734,40.061626699985936,44.06,44.06,-,40.06063650001306,0.0009190999553538859
S004,1,練習,6,6,Congruent,,Straight 圖片,Gemini_Generated_Image_xnkfcyxnkfcyxnkf.png,y,0.7869938000221737,1,None,y:0.787,46.06252839998342,50.06,50.06,-,46.06063650001306,0.0033393999910913408
S004,1,練習,7,7,Congruent,,中 負向 文字,冷漠,b,0.6167036999831907,1,None,b:0.617,52.06506350002019,56.07,56.07,-,52.06063650001306,0.004988199973013252
S004,1,練習,8,8,Congruent,,Straight 圖片,Gemini_Generated_Image_8jcutu8jcutu8jcu (1).png,y,0.7177709999959916,1,None,y:0.718,58.065532799984794,62.07,62.07,-,58.06063650001306,0.0061579999746754766
S004,1,練習,9,9,Congruent,,Gay 圖片,Gemini_Generated_Image_oqaxgcoqaxgcoqax.png,b,0.817674599995371,1,None,b:0.818,64.06733410002198,68.07,68.07,-,64.06063650001306,0.007612899993546307
S004,1,練習,10,10,Congruent,,中 正向 文字,高興,y,0.6674291999661364,1,None,y:0.667,70.06912820000434,74.07,74.07,-,70.06063650001306,0.009568799985572696
S004,1,練習,10,0,Congruent,Run1練習結束,,,,,,EVENT,,1763877917.5739639,74.07,74.07,-,,
S004,1,預備開始,10,0,Congruent,Run 1 預備開始開始,,,,,,EVENT,,1763877917.5750344,74.07,74.07,-,,
S004,1,預備開始,10,0,Congruent,Run 1 預備開始結束,,,,,,EVENT,,1763877927.575968,84.07,84.07,-,,
S004,1,正式,10,0,Congruent,Run1正式開始,,,,,,EVENT,,1763877927.576971,84.07,84.07,-,,
S004,1,正式,11,1,Congruent,,高 負向 文字,敵意,b,0.7356530000106432,1,None,b:0.736,86.12313079996966,90.12,90.12,-,86.11023960000603,0.013997900008689612
S004,1,正式,12,2,Congruent,,Gay 圖片,Gemini_Generated_Image_nwdpz1nwdpz1nwdp.png,b,0.7515415999805555,1,None,b:0.752,92.12451729999157,96.13,96.13,-,92.11023960000603,0.01543379999930039
S004,1,正式,13,3,Congruent,,Straight 圖片,Gemini_Generated_Image_22gggh22gggh22gg (1).png,y,0.7529448000132106,1,None,y:0.753,98.12637419998646,102.11,102.11,-,98.11023960000603,0.0007906999671831727
S004,1,正式,14,4,Congruent,,高 正向 文字,大膽,y,0.9356888000038452,1,None,y:0.936,104.11157349997666,108.11,108.11,-,104.11023960000603,0.002162699995096773
S004,1,正式,15,5,Congruent,,中 正向 文字,感激,y,0.7843418000265956,1,None,y:0.784,110.11245989997406,114.11,114.11,-,110.11023960000603,0.0033719000057317317
S004,1,正式,16,6,Congruent,,高 正向 文字,欣喜,y,0.6174043000210077,1,None,y:0.617,116.11549649998778,120.12,120.12,-,116.11023960000603,0.005208399961702526
S004,1,正式,17,7,Congruent,,Straight 圖片,Gemini_Generated_Image_8zpygh8zpygh8zpy (1).png,y,0.6531042999704368,1,None,y:0.653,122.1155772000202,126.12,126.12,-,122.11023960000603,0.007023699989076704
S004,1,正式,18,8,Congruent,,Gay 圖片,Gemini_Generated_Image_jpalswjpalswjpal.png,b,0.7359092999831773,1,None,b:0.736,128.11786240001675,132.12,132.12,-,128.11023960000603,0.008727699983865023
S004,1,正式,19,9,Congruent,,高 負向 文字,震怒,b,0.6860575000173412,1,None,b:0.686,134.11880769999698,138.12,138.12,-,134.11023960000603,0.009946400008630008
S004,1,正式,20,10,Congruent,,中 負向 文字,冷漠,b,0.6185661000199616,1,None,b:0.619,140.12063919997308,144.12,144.12,-,140.11023960000603,0.01152840000577271
S004,1,正式,21,11,Congruent,,Straight 圖片,Gemini_Generated_Image_t8lai7t8lai7t8la (3).png,y,0.7356254999758676,1,None,y:0.736,156.12505470000906,160.13,160.13,-,156.11023960000603,0.015936399984639138
S004,1,正式,22,12,Congruent,,低 負向 文字,絕望,b,0.7192072999896482,1,None,b:0.719,162.1107918000198,166.11,166.11,-,162.11023960000603,0.0021386999869719148
S004,1,正式,23,13,Congruent,,低 負向 文字,想睡,b,0.8839430000516586,1,None,b:0.884,168.11262739996891,172.11,172.11,-,168.11023960000603,0.004042699991259724
S004,1,正式,24,14,Congruent,,低 負向 文字,悲慘,b,0.6862715000170283,1,None,b:0.686,174.11310389998835,178.12,178.12,-,174.11023960000603,0.004376699973363429
S004,1,正式,25,15,Congruent,,Straight 圖片,Gemini_Generated_Image_pz4orypz4orypz4o (4).png,y,0.7183185000321828,1,None,y:0.718,180.11564169998746,184.12,184.12,-,180.11023960000603,0.0052331999759189785
S004,1,正式,26,16,Congruent,,低 正向 文字,禪定,b,0.8350316000287421,0,Wrong,b:0.835,186.1166262999759,190.12,190.12,-,186.11023960000603,0.007031199987977743
S004,1,正式,27,17,Congruent,,中 負向 文字,受辱,b,0.7864504000172019,1,None,b:0.786,192.117726699973,196.12,196.12,-,192.11023960000603,0.008650299976579845
S004,1,正式,28,18,Congruent,,Gay 圖片,"ChatGPT Image Nov 16, 2025 at 09_08_59 PM.png",b,0.7529549999744631,1,None,b:0.753,198.11923110001953,202.12,202.12,-,198.11023960000603,0.010589800018351525
S004,1,正式,29,19,Congruent,,Straight 圖片,Gemini_Generated_Image_t8lai7t8lai7t8la (1).png,y,0.7516338999848813,1,None,y:0.752,204.12111750000622,208.12,208.12,-,204.11023960000603,0.012111299962271005
S004,1,正式,30,20,Congruent,,Gay 圖片,Gemini_Generated_Image_p3lb9cp3lb9cp3lb.png,b,0.7525826999917626,1,None,b:0.753,210.12331759999506,214.13,214.13,-,210.11023960000603,0.014112900011241436
S004,1,正式,31,21,Congruent,,Gay 圖片,"ChatGPT Image Nov 16, 2025 at 09_08_53 PM.png",b,0.682685500010848,1,None,b:0.683,226.1116680999985,230.11,230.11,-,226.11023960000603,0.002293400000780821
S004,1,正式,32,22,Congruent,,高 正向 文字,堅定,y,0.9171307999640703,1,None,y:0.917,232.11354350001784,236.11,236.11,-,232.11023960000603,0.0028497999883256853
S004,1,正式,33,23,Congruent,,Straight 圖片,Gemini_Generated_Image_pz4orypz4orypz4o (2).png,y,0.7520391999860294,1,None,y:0.752,238.11377340002218,242.12,242.12,-,238.11023960000603,0.005051899992395192
S004,1,正式,34,24,Congruent,,中 負向 文字,憤世嫉俗,b,0.7834697999642231,1,None,b:0.783,244.11550100002205,248.12,248.12,-,244.11023960000603,0.00618859997484833
S004,1,正式,35,25,Congruent,,Straight 圖片,Gemini_Generated_Image_n96fypn96fypn96f.png,y,0.669302299967967,1,None,y:0.669,250.1168310000212,254.12,254.12,-,250.11023960000603,0.007516100013162941
S004,1,正式,36,26,Congruent,,Straight 圖片,Gemini_Generated_Image_jp0sc5jp0sc5jp0s (4).png,y,0.7024992000078782,1,None,y:0.702,256.1184838999761,260.12,260.12,-,256.110239600006,0.009412999963387847
S004,1,正式,37,27,Congruent,,Straight 圖片,Gemini_Generated_Image_63bzk963bzk963bz (3).png,y,0.7353079000022262,1,None,y:0.735,262.120065599971,266.12,266.12,-,262.110239600006,0.011201100016478449
S004,1,正式,38,28,Congruent,,高 負向 文字,受威脅,b,0.786193199979607,1,None,b:0.786,268.1219876999967,272.12,272.12,-,268.110239600006,0.012754399969708174
S004,1,正式,39,29,Congruent,,Gay 圖片,IMG_0082 (5).jpg,b,0.6191968999919482,1,None,b:0.619,274.12322680000216,278.13,278.13,-,274.110239600006,0.014700200001243502
S004,1,正式,40,30,Congruent,,中 正向 文字,調皮,b,0.7856587000424042,0,Wrong,b:0.786,280.1253934999695,284.11,284.11,-,280.110239600006,0.0004476999747566879
S004,1,正式,41,31,Congruent,,Gay 圖片,Gemini_Generated_Image_oqaxgcoqaxgcoqax.png,b,0.8030953999841586,1,None,b:0.803,296.1134191000019,300.12,300.12,-,296.110239600006,0.004925300017930567
S004,1,正式,42,32,Congruent,,低 負向 文字,虛弱,b,0.9175728000118397,1,None,b:0.918,302.1155579999904,306.12,306.12,-,302.110239600006,0.006919700012076646
S004,1,正式,43,33,Congruent,,低 正向 文字,受撫慰,y,1.152795200003311,1,None,y:1.153,308.11646889999975,312.12,312.12,-,308.110239600006,0.00723019998986274
S004,1,正式,44,34,Congruent,,中 正向 文字,充滿希望,y,0.7676381000201218,1,None,y:0.768,314.11807009996846,318.12,318.12,-,314.110239600006,0.008372900018002838
S004,1,正式,45,35,Congruent,,中 正向 文字,被理解,b,0.6846177999977954,0,Wrong,b:0.685,320.1191662999918,324.12,324.12,-,320.110239600006,0.010250499995891005
S004,1,正式,46,36,Congruent,,中 負向 文字,憤懣,b,0.7696014000102878,1,None,b:0.770,326.12071069999365,330.12,330.12,-,326.110239600006,0.01173289999132976
S004,1,正式,47,37,Congruent,,Gay 圖片,Gemini_Generated_Image_3tngf13tngf13tng.png,b,0.7357300999574363,1,None,b:0.736,332.1222818000242,336.12,336.12,-,332.110239600006,0.013718499976675957
S004,1,正式,48,38,Congruent,,Gay 圖片,Gemini_Generated_Image_z9vakfz9vakfz9va.png,b,1.0526426000287756,1,None,b:1.053,338.12420949997613,342.13,342.13,-,338.110239600006,0.015502700000070035
S004,1,正式,49,39,Congruent,,中 負向 文字,暴躁,b,0.8519486999721266,1,None,b:0.852,344.12595640000654,348.11,348.11,-,344.110239600006,0.001020599971525371
S004,1,正式,50,40,Congruent,,高 負向 文字,壓力大,b,0.7682490999577567,1,None,b:0.768,350.1120767000248,354.11,354.11,-,350.110239600006,0.0025517999893054366
S004,1,正式,51,41,Congruent,,Gay 圖片,Gemini_Generated_Image_7w7ppb7w7ppb7w7p.png,b,0.7684789000195451,1,None,b:0.768,366.1150208999752,370.12,370.12,-,366.110239600006,0.0061012000078335404
S004,1,正式,52,42,Congruent,,Gay 圖片,Gemini_Generated_Image_2kbxjz2kbxjz2kbx.png,b,0.8028473000158556,1,None,b:0.803,372.116587699973,376.12,376.12,-,372.110239600006,0.006948099995497614
S004,1,正式,53,43,Congruent,,Straight 圖片,Gemini_Generated_Image_m8js26m8js26m8js.png,y,0.9181256999727339,1,None,y:0.918,378.11805950000416,382.12,382.12,-,378.110239600006,0.009082800010219216
S004,1,正式,54,44,Congruent,,Straight 圖片,Gemini_Generated_Image_8jcutu8jcutu8jcu (1).png,y,0.7030962000135332,1,None,y:0.703,384.11994409997715,388.12,388.12,-,384.110239600006,0.010984099993947893
S004,1,正式,55,45,Congruent,,高 正向 文字,精力充沛,y,1.1852069000015035,1,None,y:1.185,390.1222364999703,394.12,394.12,-,390.110239600006,0.012497999996412545
S004,1,正式,56,46,Congruent,,低 正向 文字,反思,None,nan,0,Miss,y:1.552,396.1231830000179,400.12,400.12,-,396.110239600006,0.013707200007047504
S004,1,正式,57,47,Congruent,,Gay 圖片,Gemini_Generated_Image_m59zsrm59zsrm59z (1).png,b,0.652109999966342,1,None,b:0.652,402.1252936000237,406.13,406.13,-,402.110239600006,0.01594939996721223
S004,1,正式,58,48,Congruent,,Straight 圖片,Gemini_Generated_Image_jp0sc5jp0sc5jp0s (1).png,y,0.7178764999844134,1,None,y:0.718,408.1273307999945,412.11,412.11,-,408.110239600006,0.0010092000011354685
S004,1,正式,59,49,Congruent,,低 正向 文字,安穩,y,0.7507301000296138,1,None,y:0.751,414.1114907999872,418.11,418.11,-,414.110239600006,0.003046699974220246
S004,1,正式,60,50,Congruent,,Straight 圖片,Gemini_Generated_Image_22gggh22gggh22gg (4).png,y,0.7019472999963909,1,None,y:0.702,420.11239159997785,424.11,424.11,-,420.110239600006,0.004036900005303323
S004,1,正式,60,0,Congruent,Run1正式結束,,,,,,EVENT,,1763878267.6182895,424.12,424.12,-,,
S004,1,Run End,60,0,Congruent,Run 1 結束,,,,,,EVENT,,1763878271.6193242,428.12,428.12,-,,
S004,,Rest,60,0,,休息開始,,,,,,EVENT,,1763878271.6193242,428.12,428.12,-,,
S004,,Rest,60,0,,休息開始,,,,,,EVENT,,1763878298.1078691,454.60,454.60,-,,
S004,,Rest,60,0,,休息開始,,,,,,EVENT,,1763878320.5768,477.07,477.07,-,,
S004,,Rest,60,0,,休息開始,,,,,,EVENT,,1763878335.0491018,491.55,491.55,-,,
S004,2,Run Start,60,0,Incongruent,Run 2 開始,,,,,,EVENT,,1763878358.1511166,514.65,514.65,-,,
S004,2,練習,60,0,Incongruent,Run2練習開始,,,,,,EVENT,,1763878372.1630106,528.66,528.66,14.01,,
S004,2,練習,61,1,Incongruent,,Straight 圖片,Gemini_Generated_Image_jmgj16jmgj16jmgj.png,y,0.8517636999604292,1,None,y:0.852,530.7102510000113,534.71,534.71,20.06,530.7005137000233,0.010670199990272522
S004,2,練習,62,2,Incongruent,,中 負向 文字,困惑,y,0.7683627999504097,1,None,y:0.768,536.7119038000237,540.71,540.71,26.06,536.7005137000233,0.01212410000152886
S004,2,練習,63,3,Incongruent,,Straight 圖片,ChatGPT Image 2025年11月16日 下午10_10_18.png,y,0.8513431000174023,1,None,y:0.851,542.7132962999749,546.71,546.71,32.07,542.7005137000233,0.013211799960117787
S004,2,練習,64,4,Incongruent,,高 正向 文字,激昂,b,1.2185361000010744,1,None,b:1.219,548.7148757000105,552.72,552.72,38.07,548.7005137000233,0.01537909999024123
S004,2,練習,65,5,Incongruent,,低 負向 文字,無動於衷,y,1.0180183000047691,1,None,y:1.018,554.7163844999741,558.70,558.70,44.05,554.7005137000233,0.0010541999945417047
S004,2,練習,66,6,Incongruent,,高 負向 文字,暴怒,y,0.900841600028798,1,None,y:0.901,560.7014108999865,564.70,564.70,50.05,560.7005137000233,0.0021187999518588185
S004,2,練習,67,7,Incongruent,,Gay 圖片,Gemini_Generated_Image_de198wde198wde19.png,b,1.2186641999869607,1,None,b:1.219,566.7037443000008,570.71,570.71,56.06,566.7005137000233,0.0037153999437578022
S004,2,練習,68,8,Incongruent,,中 正向 文字,隨和,b,1.2011471000150777,1,None,b:1.201,572.7050432999968,576.71,576.71,62.06,572.7005137000233,0.005833799950778484
S004,2,練習,69,9,Incongruent,,Gay 圖片,Gemini_Generated_Image_941ux7941ux7941u (2).png,b,0.8682629000395536,1,None,b:0.868,578.7061251999694,582.71,582.71,68.06,578.7005137000233,0.007104899967089295
S004,2,練習,70,10,Incongruent,,Straight 圖片,ChatGPT Image 2025年11月16日 下午10_10_21.png,y,0.884697400033474,1,None,y:0.885,584.7078682999709,588.71,588.71,74.06,584.7005137000233,0.00844959996175021
S004,2,練習,70,0,Incongruent,Run2練習結束,,,,,,EVENT,,1763878432.2121317,588.71,588.71,74.06,,
S004,2,預備開始,70,0,Incongruent,Run 2 預備開始開始,,,,,,EVENT,,1763878432.2136424,588.71,588.71,74.06,,
S004,2,預備開始,70,0,Incongruent,Run 2 預備開始結束,,,,,,EVENT,,1763878442.2145596,598.71,598.71,84.06,,
S004,2,正式,70,0,Incongruent,Run2正式開始,,,,,,EVENT,,1763878442.2155688,598.71,598.71,84.06,,
S004,2,正式,71,1,Incongruent,,Straight 圖片,Gemini_Generated_Image_7ypa4e7ypa4e7ypa (4).png,y,0.8341437000199221,1,None,y:0.834,600.7624029999715,604.76,604.76,90.12,600.7503185999813,0.012917799991555512
S004,2,正式,72,2,Incongruent,,低 正向 文字,反思,y,1.450284600025043,0,Wrong,y:1.450,606.7644678999786,610.76,610.76,96.12,606.7503185999813,0.014669500000309199
S004,2,正式,73,3,Incongruent,,Straight 圖片,Gemini_Generated_Image_8jcutu8jcutu8jcu.png,y,0.6666993999970146,1,None,y:0.667,612.765639899997,616.77,616.77,102.12,612.7503185999813,0.0160413000266999
S004,2,正式,74,4,Incongruent,,Gay 圖片,Gemini_Generated_Image_qcheitqcheitqche (2).png,b,0.798965500027407,1,None,b:0.799,618.7508223999757,622.75,622.75,108.10,618.7503185999813,0.0012150999973528087
S004,2,正式,75,5,Incongruent,,中 正向 文字,感興趣,None,nan,0,Miss,y:1.786,624.7522681999835,628.75,628.75,114.11,624.7503185999813,0.0030069000204093754
S004,2,正式,76,6,Incongruent,,Straight 圖片,Gemini_Generated_Image_uvtqutuvtqutuvtq.png,y,0.9027189000044018,1,None,y:0.903,630.7537402000162,634.75,634.75,120.11,630.7503185999813,0.004338900034781545
S004,2,正式,77,7,Incongruent,,低 負向 文字,悲慘,y,1.251828000007663,1,None,y:1.252,636.7552029999788,640.76,640.76,126.11,636.7503185999813,0.005702099995687604
S004,2,正式,78,8,Incongruent,,Straight 圖片,Gemini_Generated_Image_pz4orypz4orypz4o (3).png,y,0.8023521000286564,1,None,y:0.802,642.7566167999757,646.76,646.76,132.11,642.7503185999813,0.007819599995855242
S004,2,正式,79,9,Incongruent,,Straight 圖片,Gemini_Generated_Image_7ypa4e7ypa4e7ypa (2).png,y,0.9530110000050627,1,None,y:0.953,648.7588413999765,652.76,652.76,138.11,648.7503185999813,0.009403900010511279
S004,2,正式,80,10,Incongruent,,Gay 圖片,Gemini_Generated_Image_qcheitqcheitqche.png,b,0.7856959000346251,1,None,b:0.786,654.760827799968,658.76,658.76,144.11,654.7503185999813,0.010496000002603978
S004,2,正式,81,11,Incongruent,,中 負向 文字,冷漠,y,1.0510466999839991,1,None,y:1.051,670.7648678999976,674.77,674.77,160.12,670.7503185999813,0.015307600027881563
S004,2,正式,82,12,Incongruent,,中 負向 文字,悲觀,y,1.0687686000019312,1,None,y:1.069,676.7661431999877,680.75,680.75,166.10,676.7503185999813,0.0003575999871827662
S004,2,正式,83,13,Incongruent,,Straight 圖片,ChatGPT Image 2025年11月16日 下午10_10_18.png,y,0.8179835000191815,1,None,y:0.818,682.7512773000053,686.75,686.75,172.10,682.7503185999813,0.001711999997496605
S004,2,正式,84,14,Incongruent,,中 負向 文字,憤世嫉俗,y,0.985423100006301,1,None,y:0.985,688.7527338999789,692.75,692.75,178.11,688.7503185999813,0.003583799989428371
S004,2,正式,85,15,Incongruent,,低 負向 文字,心力交瘁,y,0.7517047000001185,1,None,y:0.752,694.7542411999893,698.76,698.76,184.11,694.7503185999813,0.004699300043284893
S004,2,正式,86,16,Incongruent,,中 正向 文字,調皮,y,1.1361777000129223,0,Wrong,y:1.136,700.7557087999885,704.76,704.76,190.11,700.7503185999813,0.006158200034406036
S004,2,正式,87,17,Incongruent,,Gay 圖片,Gemini_Generated_Image_3wgq3s3wgq3s3wgq.png,None,nan,0,Miss,b:1.501,706.7579443000141,710.76,710.76,196.11,706.7503185999813,0.007472100027371198
S004,2,正式,88,18,Incongruent,,高 負向 文字,驚慌,y,1.2688370000105351,1,None,y:1.269,712.7591975000105,716.76,716.76,202.11,712.7503185999813,0.008759699994698167
S004,2,正式,89,19,Incongruent,,低 正向 文字,禪定,b,1.0521795999957249,1,None,b:1.052,718.761138300004,722.76,722.76,208.11,718.7503185999813,0.011135999986436218
S004,2,正式,90,20,Incongruent,,中 正向 文字,深情,y,1.1672360000084154,0,Wrong,y:1.167,724.7620054999716,728.76,728.76,214.12,724.7503185999813,0.01304699998581782
S004,2,正式,91,21,Incongruent,,中 正向 文字,感激,b,1.135686199995689,1,None,b:1.136,740.7668872000067,744.75,744.75,230.10,740.7503185999813,0.0006976000149734318
S004,2,正式,92,22,Incongruent,,Straight 圖片,Gemini_Generated_Image_m8js26m8js26m8js (3).png,y,0.7339056999771856,1,None,y:0.734,746.7525834999979,750.75,750.75,236.10,746.7503185999813,0.002167500031646341
S004,2,正式,93,23,Incongruent,,高 負向 文字,反抗,y,1.234712400007993,1,None,y:1.235,752.7536012000055,756.76,756.76,242.11,752.7503185999813,0.004941100021824241
S004,2,正式,94,24,Incongruent,,Straight 圖片,ChatGPT Image 2025年11月16日 下午10_10_59.png,y,0.7343192000407726,1,None,y:0.734,758.7557305999799,762.76,762.76,248.11,758.7503185999813,0.005316700029652566
S004,2,正式,95,25,Incongruent,,低 負向 文字,倦怠,y,1.051348299952224,1,None,y:1.051,764.756821500021,768.76,768.76,254.11,764.7503185999813,0.0075323000201024115
S004,2,正式,96,26,Incongruent,,Straight 圖片,Gemini_Generated_Image_wm069wm069wm069w.png,y,0.9679082999937236,1,None,y:0.968,770.7580727000022,774.76,774.76,260.11,770.7503185999813,0.008450900029856712
S004,2,正式,97,27,Incongruent,,Gay 圖片,Gemini_Generated_Image_k0lbsdk0lbsdk0lb (2).png,b,1.2178596000303514,1,None,b:1.218,776.7594085999881,780.76,780.76,266.11,776.7503185999813,0.009564800013322383
S004,2,正式,98,28,Incongruent,,Gay 圖片,Gemini_Generated_Image_7bk6mm7bk6mm7bk6.png,b,1.2175141000188887,1,None,b:1.218,782.7618446999695,786.76,786.76,272.11,782.7503185999813,0.012294100015424192
S004,2,正式,99,29,Incongruent,,Straight 圖片,Gemini_Generated_Image_63bzk963bzk963bz.png,y,0.8856370000285096,1,None,y:0.886,788.7625706999679,792.76,792.76,278.12,788.7503185999813,0.013818800041917711
S004,2,正式,100,30,Incongruent,,Straight 圖片,ChatGPT Image 2025年11月16日 下午10_10_59.png,y,0.9675449000205845,1,None,y:0.968,794.7649661999894,798.77,798.77,284.12,794.7503185999813,0.015519000007770956
S004,2,正式,101,31,Incongruent,,Gay 圖片,Gemini_Generated_Image_atjalatjalatjala.png,b,0.9680700000026263,1,None,b:0.968,810.7522738999687,814.75,814.75,300.11,810.7503185999813,0.0029273999971337616
S004,2,正式,102,32,Incongruent,,低 負向 文字,憂愁,y,1.2022836999967694,1,None,y:1.202,816.7533455999801,820.75,820.75,306.11,816.7503185999813,0.004239400033839047
S004,2,正式,103,33,Incongruent,,高 正向 文字,欣喜,b,1.102307299966924,1,None,b:1.102,822.7554275000002,826.76,826.76,312.11,822.7503185999813,0.006136100040748715
S004,2,正式,104,34,Incongruent,,高 負向 文字,恐懼,y,1.2845059999963269,1,None,y:1.285,828.7567633999861,832.76,832.76,318.11,828.7503185999813,0.00749250000808388
S004,2,正式,105,35,Incongruent,,高 正向 文字,興奮,b,1.3017495999811217,1,None,b:1.302,834.7585752999876,838.76,838.76,324.11,834.7503185999813,0.010221000004094094
S004,2,正式,106,36,Incongruent,,低 負向 文字,累,y,1.2696399999549612,1,None,y:1.270,840.7603064000141,844.76,844.76,330.11,840.7503185999813,0.011529600014910102
S004,2,正式,107,37,Incongruent,,Straight 圖片,Gemini_Generated_Image_n96fypn96fypn96f.png,y,0.7343225000076927,1,None,y:0.734,846.7619953000103,850.76,850.76,336.11,846.7503185999813,0.01227370003471151
S004,2,正式,108,38,Incongruent,,Gay 圖片,Gemini_Generated_Image_atjalatjalatjala.png,b,0.8357605999917723,1,None,b:0.836,852.7637682000059,856.76,856.76,342.12,852.7503185999813,0.013459400041028857
S004,2,正式,109,39,Incongruent,,Straight 圖片,Gemini_Generated_Image_63bzk963bzk963bz (3).png,y,0.7834863999742083,1,None,y:0.783,858.7660930000129,862.77,862.77,348.12,858.7503185999813,0.01594489999115467
S004,2,正式,110,40,Incongruent,,Gay 圖片,Gemini_Generated_Image_bd8y7qbd8y7qbd8y.png,b,0.7193487000185996,1,None,b:0.719,864.7669860000024,868.75,868.75,354.10,864.7503185999813,0.0001944000250659883
S004,2,正式,111,41,Incongruent,,中 負向 文字,分心,y,1.3849172000191174,1,None,y:1.385,880.7544038000051,884.76,884.76,370.11,880.7503185999813,0.005472699995152652
S004,2,正式,112,42,Incongruent,,高 正向 文字,狂喜,b,1.0187007000204176,1,None,b:1.019,886.7559932000004,890.76,890.76,376.11,886.7503185999813,0.007671400031540543
S004,2,正式,113,43,Incongruent,,高 負向 文字,受威脅,y,1.2852559000020847,1,None,y:1.285,892.7578848999692,896.76,896.76,382.11,892.7503185999813,0.007971399987582117
S004,2,正式,114,44,Incongruent,,低 正向 文字,自在,b,1.0017783000366762,1,None,b:1.002,898.7599735999829,902.76,902.76,388.11,898.7503185999813,0.009457400010433048
S004,2,正式,115,45,Incongruent,,低 正向 文字,若有所思,y,1.368439500045497,0,Wrong,y:1.368,904.760874199972,908.76,908.76,394.11,904.7503185999813,0.011845200031530112
S004,2,正式,116,46,Incongruent,,Gay 圖片,Gemini_Generated_Image_qcheitqcheitqche (1).png,b,0.9016376999788918,1,None,b:0.902,910.7625610000105,914.76,914.76,400.12,910.7503185999813,0.013430499995592982
S004,2,正式,117,47,Incongruent,,高 正向 文字,容光煥發,b,1.2686623000190593,1,None,b:1.269,916.7647313000052,920.77,920.77,406.12,916.7503185999813,0.015193600032944232
S004,2,正式,118,48,Incongruent,,Gay 圖片,Gemini_Generated_Image_de198wde198wde19.png,b,0.9012383000226691,1,None,b:0.901,922.7657458999893,926.77,926.77,412.12,922.7503185999813,0.01681320002535358
S004,2,正式,119,49,Incongruent,,Gay 圖片,Gemini_Generated_Image_941ux7941ux7941u (2).png,b,1.0691456999629736,1,None,b:1.069,928.7506815000088,932.75,932.75,418.10,928.7503185999813,0.0010882000206038356
S004,2,正式,120,50,Incongruent,,Gay 圖片,Gemini_Generated_Image_941ux7941ux7941u (2).png,b,1.1514982999651693,1,None,b:1.151,934.7527013000217,938.76,938.76,424.11,934.7503185999813,0.0043543000356294215
S004,2,正式,120,0,Incongruent,Run2正式結束,,,,,,EVENT,,1763878782.2589874,938.76,938.76,424.11,,
S004,2,Run End,120,0,Incongruent,Run 2 結束,,,,,,EVENT,,1763878786.2752373,942.77,942.77,428.12,,
