subject,phase,trial_global,block_type_raw,condition_raw,resp_raw,acc_raw,onset_abs_raw,keypress_abs_raw,rt_raw,block_type_proc,condition_proc,acc_proc,rt_proc,_merge,diff_ms,mismatch_reason
S001,1.0,1,練習,Congruent,b,1.0,16.07149629999185,16.821976399980485,0.7504800999886356,練習,Congruent,1.0,0.7504800999886356,both,0.0,
S001,1.0,2,練習,Congruent,b,1.0,22.0727065000101,22.891472699993756,0.8187661999836564,練習,Congruent,1.0,0.8187661999836564,both,0.0,
S001,1.0,3,練習,Congruent,b,0.0,28.074427800020203,28.67511630000081,0.6006884999806061,練習,Congruent,0.0,0.6006884999806061,both,0.0,
S001,1.0,4,練習,Congruent,y,1.0,34.06072810001206,34.928602600004524,0.8678744999924675,練習,Congruent,1.0,0.8678744999924675,both,0.0,
S001,1.0,5,練習,Congruent,b,1.0,40.061626699985936,40.79588079999667,0.7342541000107303,練習,Congruent,1.0,0.7342541000107303,both,0.0,
S001,1.0,6,練習,Congruent,y,1.0,46.06252839998342,46.849522200005595,0.7869938000221737,練習,Congruent,1.0,0.7869938000221737,both,0.0,
S001,1.0,7,練習,Congruent,b,1.0,52.06506350002019,52.68176720000338,0.6167036999831907,練習,Congruent,1.0,0.6167036999831907,both,0.0,
S001,1.0,8,練習,Congruent,y,1.0,58.0655327999848,58.78330379998079,0.7177709999959916,練習,Congruent,1.0,0.7177709999959916,both,0.0,
S001,1.0,9,練習,Congruent,b,1.0,64.06733410002198,64.88500870001735,0.817674599995371,練習,Congruent,1.0,0.817674599995371,both,0.0,
S001,1.0,10,練習,Congruent,y,1.0,70.06912820000434,70.73655739997048,0.6674291999661364,練習,Congruent,1.0,0.6674291999661364,both,0.0,
S001,1.0,11,正式,Congruent,b,1.0,86.12313079996966,86.8587837999803,0.7356530000106432,正式,Congruent,1.0,0.7356530000106432,both,0.0,
S001,1.0,12,正式,Congruent,b,1.0,92.12451729999157,92.87605889997212,0.7515415999805555,正式,Congruent,1.0,0.7515415999805555,both,0.0,
S001,1.0,13,正式,Congruent,y,1.0,98.12637419998646,98.87931899999967,0.7529448000132106,正式,Congruent,1.0,0.7529448000132106,both,0.0,
S001,1.0,14,正式,Congruent,y,1.0,104.11157349997666,105.0472622999805,0.9356888000038452,正式,Congruent,1.0,0.9356888000038452,both,0.0,
S001,1.0,15,正式,Congruent,y,1.0,110.11245989997406,110.89680170000065,0.7843418000265956,正式,Congruent,1.0,0.7843418000265956,both,0.0,
S001,1.0,16,正式,Congruent,y,1.0,116.11549649998778,116.73290080000879,0.6174043000210077,正式,Congruent,1.0,0.6174043000210077,both,0.0,
S001,1.0,17,正式,Congruent,y,1.0,122.1155772000202,122.76868149999063,0.6531042999704368,正式,Congruent,1.0,0.6531042999704368,both,0.0,
S001,1.0,18,正式,Congruent,b,1.0,128.11786240001675,128.85377169999992,0.7359092999831773,正式,Congruent,1.0,0.7359092999831773,both,0.0,
S001,1.0,19,正式,Congruent,b,1.0,134.11880769999698,134.80486520001432,0.6860575000173412,正式,Congruent,1.0,0.6860575000173412,both,0.0,
S001,1.0,20,正式,Congruent,b,1.0,140.12063919997308,140.73920529999305,0.6185661000199616,正式,Congruent,1.0,0.6185661000199616,both,0.0,
S001,1.0,21,正式,Congruent,y,1.0,156.12505470000906,156.86068019998493,0.7356254999758676,正式,Congruent,1.0,0.7356254999758676,both,0.0,
S001,1.0,22,正式,Congruent,b,1.0,162.1107918000198,162.82999910000945,0.7192072999896482,正式,Congruent,1.0,0.7192072999896482,both,0.0,
S001,1.0,23,正式,Congruent,b,1.0,168.11262739996891,168.99657040002057,0.8839430000516586,正式,Congruent,1.0,0.8839430000516586,both,0.0,
S001,1.0,24,正式,Congruent,b,1.0,174.11310389998835,174.79937540000537,0.6862715000170283,正式,Congruent,1.0,0.6862715000170283,both,0.0,
S001,1.0,25,正式,Congruent,y,1.0,180.11564169998746,180.83396020001965,0.7183185000321828,正式,Congruent,1.0,0.7183185000321828,both,0.0,
S001,1.0,26,正式,Congruent,b,0.0,186.1166262999759,186.95165790000465,0.8350316000287421,正式,Congruent,0.0,0.8350316000287421,both,0.0,
S001,1.0,27,正式,Congruent,b,1.0,192.117726699973,192.9041770999902,0.7864504000172019,正式,Congruent,1.0,0.7864504000172019,both,0.0,
S001,1.0,28,正式,Congruent,b,1.0,198.11923110001956,198.87218609999402,0.7529549999744631,正式,Congruent,1.0,0.7529549999744631,both,0.0,
S001,1.0,29,正式,Congruent,y,1.0,204.12111750000625,204.87275139999113,0.7516338999848813,正式,Congruent,1.0,0.7516338999848813,both,0.0,
S001,1.0,30,正式,Congruent,b,1.0,210.12331759999503,210.8759002999868,0.7525826999917626,正式,Congruent,1.0,0.7525826999917626,both,0.0,
S001,1.0,31,正式,Congruent,b,1.0,226.1116680999985,226.79435360000934,0.682685500010848,正式,Congruent,1.0,0.682685500010848,both,0.0,
S001,1.0,32,正式,Congruent,y,1.0,232.11354350001784,233.0306742999819,0.9171307999640704,正式,Congruent,1.0,0.9171307999640704,both,0.0,
S001,1.0,33,正式,Congruent,y,1.0,238.11377340002215,238.86581260000818,0.7520391999860294,正式,Congruent,1.0,0.7520391999860294,both,0.0,
S001,1.0,34,正式,Congruent,b,1.0,244.11550100002205,244.89897079998627,0.7834697999642231,正式,Congruent,1.0,0.7834697999642231,both,0.0,
S001,1.0,35,正式,Congruent,y,1.0,250.1168310000212,250.78613329998916,0.669302299967967,正式,Congruent,1.0,0.669302299967967,both,0.0,
S001,1.0,36,正式,Congruent,y,1.0,256.1184838999761,256.820983099984,0.7024992000078782,正式,Congruent,1.0,0.7024992000078782,both,0.0,
S001,1.0,37,正式,Congruent,y,1.0,262.120065599971,262.8553734999732,0.7353079000022262,正式,Congruent,1.0,0.7353079000022262,both,0.0,
S001,1.0,38,正式,Congruent,b,1.0,268.1219876999967,268.9081808999763,0.786193199979607,正式,Congruent,1.0,0.786193199979607,both,0.0,
S001,1.0,39,正式,Congruent,b,1.0,274.12322680000216,274.7424236999941,0.6191968999919482,正式,Congruent,1.0,0.6191968999919482,both,0.0,
S001,1.0,40,正式,Congruent,b,0.0,280.1253934999695,280.9110522000119,0.7856587000424042,正式,Congruent,0.0,0.7856587000424042,both,0.0,
S001,1.0,41,正式,Congruent,b,1.0,296.1134191000019,296.9165144999861,0.8030953999841586,正式,Congruent,1.0,0.8030953999841586,both,0.0,
S001,1.0,42,正式,Congruent,b,1.0,302.1155579999904,303.03313080000225,0.9175728000118396,正式,Congruent,1.0,0.9175728000118396,both,0.0,
S001,1.0,43,正式,Congruent,y,1.0,308.11646889999975,309.26926410000306,1.152795200003311,正式,Congruent,1.0,1.152795200003311,both,0.0,
S001,1.0,44,正式,Congruent,y,1.0,314.11807009996846,314.8857081999886,0.7676381000201218,正式,Congruent,1.0,0.7676381000201218,both,0.0,
S001,1.0,45,正式,Congruent,b,0.0,320.1191662999918,320.80378409998957,0.6846177999977954,正式,Congruent,0.0,0.6846177999977954,both,0.0,
S001,1.0,46,正式,Congruent,b,1.0,326.12071069999365,326.89031210000394,0.7696014000102878,正式,Congruent,1.0,0.7696014000102878,both,0.0,
S001,1.0,47,正式,Congruent,b,1.0,332.1222818000242,332.85801189998165,0.7357300999574363,正式,Congruent,1.0,0.7357300999574363,both,0.0,
S001,1.0,48,正式,Congruent,b,1.0,338.12420949997613,339.1768521000049,1.0526426000287756,正式,Congruent,1.0,1.0526426000287756,both,0.0,
S001,1.0,49,正式,Congruent,b,1.0,344.12595640000654,344.97790509997867,0.8519486999721266,正式,Congruent,1.0,0.8519486999721266,both,0.0,
S001,1.0,50,正式,Congruent,b,1.0,350.1120767000248,350.88032579998253,0.7682490999577567,正式,Congruent,1.0,0.7682490999577567,both,0.0,
S001,1.0,51,正式,Congruent,b,1.0,366.1150208999752,366.88349979999475,0.7684789000195451,正式,Congruent,1.0,0.7684789000195451,both,0.0,
S001,1.0,52,正式,Congruent,b,1.0,372.116587699973,372.9194349999889,0.8028473000158556,正式,Congruent,1.0,0.8028473000158556,both,0.0,
S001,1.0,53,正式,Congruent,y,1.0,378.11805950000416,379.0361851999769,0.918125699972734,正式,Congruent,1.0,0.918125699972734,both,0.0,
S001,1.0,54,正式,Congruent,y,1.0,384.1199440999772,384.82304029999074,0.7030962000135332,正式,Congruent,1.0,0.7030962000135332,both,0.0,
S001,1.0,55,正式,Congruent,y,1.0,390.1222364999703,391.3074433999718,1.1852069000015035,正式,Congruent,1.0,1.1852069000015035,both,0.0,
S001,1.0,56,正式,Congruent,,0.0,396.1231830000179,,,正式,Congruent,0.0,,both,,
S001,1.0,57,正式,Congruent,b,1.0,402.1252936000237,402.77740359999007,0.652109999966342,正式,Congruent,1.0,0.652109999966342,both,0.0,
S001,1.0,58,正式,Congruent,y,1.0,408.1273307999945,408.84520729997894,0.7178764999844134,正式,Congruent,1.0,0.7178764999844134,both,0.0,
S001,1.0,59,正式,Congruent,y,1.0,414.1114907999872,414.86222090001684,0.7507301000296138,正式,Congruent,1.0,0.7507301000296138,both,0.0,
S001,1.0,60,正式,Congruent,y,1.0,420.11239159997785,420.81433889997425,0.7019472999963909,正式,Congruent,1.0,0.7019472999963909,both,0.0,
S001,2.0,61,練習,Incongruent,y,1.0,530.7102510000113,531.5620146999718,0.8517636999604292,練習,Incongruent,1.0,0.8517636999604292,both,0.0,
S001,2.0,62,練習,Incongruent,y,1.0,536.7119038000237,537.4802665999741,0.7683627999504097,練習,Incongruent,1.0,0.7683627999504097,both,0.0,
S001,2.0,63,練習,Incongruent,y,1.0,542.7132962999749,543.5646393999923,0.8513431000174023,練習,Incongruent,1.0,0.8513431000174023,both,0.0,
S001,2.0,64,練習,Incongruent,b,1.0,548.7148757000105,549.9334118000115,1.2185361000010744,練習,Incongruent,1.0,1.2185361000010744,both,0.0,
S001,2.0,65,練習,Incongruent,y,1.0,554.7163844999741,555.7344027999789,1.0180183000047691,練習,Incongruent,1.0,1.0180183000047691,both,0.0,
S001,2.0,66,練習,Incongruent,y,1.0,560.7014108999865,561.6022525000153,0.900841600028798,練習,Incongruent,1.0,0.900841600028798,both,0.0,
S001,2.0,67,練習,Incongruent,b,1.0,566.7037443000008,567.9224084999878,1.2186641999869607,練習,Incongruent,1.0,1.2186641999869607,both,0.0,
S001,2.0,68,練習,Incongruent,b,1.0,572.7050432999968,573.9061904000118,1.2011471000150775,練習,Incongruent,1.0,1.2011471000150775,both,0.0,
S001,2.0,69,練習,Incongruent,b,1.0,578.7061251999694,579.574388100009,0.8682629000395536,練習,Incongruent,1.0,0.8682629000395536,both,0.0,
S001,2.0,70,練習,Incongruent,y,1.0,584.7078682999709,585.5925657000043,0.884697400033474,練習,Incongruent,1.0,0.884697400033474,both,0.0,
S001,2.0,71,正式,Incongruent,y,1.0,600.7624029999715,601.5965466999914,0.8341437000199221,正式,Incongruent,1.0,0.8341437000199221,both,0.0,
S001,2.0,72,正式,Incongruent,y,0.0,606.7644678999786,608.2147525000037,1.450284600025043,正式,Incongruent,0.0,1.450284600025043,both,0.0,
S001,2.0,73,正式,Incongruent,y,1.0,612.765639899997,613.432339299994,0.6666993999970146,正式,Incongruent,1.0,0.6666993999970146,both,0.0,
S001,2.0,74,正式,Incongruent,b,1.0,618.7508223999757,619.5497879000031,0.798965500027407,正式,Incongruent,1.0,0.798965500027407,both,0.0,
S001,2.0,75,正式,Incongruent,,0.0,624.7522681999835,,,正式,Incongruent,0.0,,both,,
S001,2.0,76,正式,Incongruent,y,1.0,630.7537402000162,631.6564591000206,0.9027189000044018,正式,Incongruent,1.0,0.9027189000044018,both,0.0,
S001,2.0,77,正式,Incongruent,y,1.0,636.7552029999788,638.0070309999865,1.251828000007663,正式,Incongruent,1.0,1.251828000007663,both,0.0,
S001,2.0,78,正式,Incongruent,y,1.0,642.7566167999757,643.5589689000044,0.8023521000286564,正式,Incongruent,1.0,0.8023521000286564,both,0.0,
S001,2.0,79,正式,Incongruent,y,1.0,648.7588413999765,649.7118523999816,0.9530110000050628,正式,Incongruent,1.0,0.9530110000050628,both,0.0,
S001,2.0,80,正式,Incongruent,b,1.0,654.760827799968,655.5465237000026,0.7856959000346251,正式,Incongruent,1.0,0.7856959000346251,both,0.0,
S001,2.0,81,正式,Incongruent,y,1.0,670.7648678999976,671.8159145999816,1.0510466999839991,正式,Incongruent,1.0,1.0510466999839991,both,0.0,
S001,2.0,82,正式,Incongruent,y,1.0,676.7661431999877,677.8349117999896,1.0687686000019312,正式,Incongruent,1.0,1.0687686000019312,both,0.0,
S001,2.0,83,正式,Incongruent,y,1.0,682.7512773000053,683.5692608000245,0.8179835000191815,正式,Incongruent,1.0,0.8179835000191815,both,0.0,
S001,2.0,84,正式,Incongruent,y,1.0,688.7527338999789,689.7381569999852,0.985423100006301,正式,Incongruent,1.0,0.985423100006301,both,0.0,
S001,2.0,85,正式,Incongruent,y,1.0,694.7542411999893,695.5059458999895,0.7517047000001185,正式,Incongruent,1.0,0.7517047000001185,both,0.0,
S001,2.0,86,正式,Incongruent,y,0.0,700.7557087999885,701.8918865000014,1.1361777000129225,正式,Incongruent,0.0,1.1361777000129225,both,0.0,
S001,2.0,87,正式,Incongruent,,0.0,706.7579443000141,,,正式,Incongruent,0.0,,both,,
S001,2.0,88,正式,Incongruent,y,1.0,712.7591975000105,714.028034500021,1.2688370000105351,正式,Incongruent,1.0,1.2688370000105351,both,0.0,
S001,2.0,89,正式,Incongruent,b,1.0,718.761138300004,719.8133178999997,1.0521795999957249,正式,Incongruent,1.0,1.0521795999957249,both,0.0,
S001,2.0,90,正式,Incongruent,y,0.0,724.7620054999716,725.92924149998,1.1672360000084154,正式,Incongruent,0.0,1.1672360000084154,both,0.0,
S001,2.0,91,正式,Incongruent,b,1.0,740.7668872000067,741.9025734000024,1.135686199995689,正式,Incongruent,1.0,1.135686199995689,both,0.0,
S001,2.0,92,正式,Incongruent,y,1.0,746.7525834999979,747.486489199975,0.7339056999771856,正式,Incongruent,1.0,0.7339056999771856,both,0.0,
S001,2.0,93,正式,Incongruent,y,1.0,752.7536012000055,753.9883136000135,1.234712400007993,正式,Incongruent,1.0,1.234712400007993,both,0.0,
S001,2.0,94,正式,Incongruent,y,1.0,758.7557305999799,759.4900498000206,0.7343192000407726,正式,Incongruent,1.0,0.7343192000407726,both,0.0,
S001,2.0,95,正式,Incongruent,y,1.0,764.756821500021,765.8081697999733,1.051348299952224,正式,Incongruent,1.0,1.051348299952224,both,0.0,
S001,2.0,96,正式,Incongruent,y,1.0,770.7580727000022,771.725980999996,0.9679082999937236,正式,Incongruent,1.0,0.9679082999937236,both,0.0,
S001,2.0,97,正式,Incongruent,b,1.0,776.7594085999881,777.9772682000184,1.2178596000303514,正式,Incongruent,1.0,1.2178596000303514,both,0.0,
S001,2.0,98,正式,Incongruent,b,1.0,782.7618446999695,783.9793587999884,1.2175141000188887,正式,Incongruent,1.0,1.2175141000188887,both,0.0,
S001,2.0,99,正式,Incongruent,y,1.0,788.7625706999679,789.6482076999964,0.8856370000285096,正式,Incongruent,1.0,0.8856370000285096,both,0.0,
S001,2.0,100,正式,Incongruent,y,1.0,794.7649661999894,795.73251110001,0.9675449000205844,正式,Incongruent,1.0,0.9675449000205844,both,0.0,
S001,2.0,101,正式,Incongruent,b,1.0,810.7522738999687,811.7203438999713,0.9680700000026264,正式,Incongruent,1.0,0.9680700000026264,both,0.0,
S001,2.0,102,正式,Incongruent,y,1.0,816.7533455999801,817.9556292999769,1.2022836999967694,正式,Incongruent,1.0,1.2022836999967694,both,0.0,
S001,2.0,103,正式,Incongruent,b,1.0,822.7554275000002,823.8577347999671,1.102307299966924,正式,Incongruent,1.0,1.102307299966924,both,0.0,
S001,2.0,104,正式,Incongruent,y,1.0,828.7567633999861,830.0412693999824,1.2845059999963269,正式,Incongruent,1.0,1.2845059999963269,both,0.0,
S001,2.0,105,正式,Incongruent,b,1.0,834.7585752999876,836.0603248999687,1.3017495999811215,正式,Incongruent,1.0,1.3017495999811215,both,0.0,
S001,2.0,106,正式,Incongruent,y,1.0,840.7603064000141,842.029946399969,1.2696399999549612,正式,Incongruent,1.0,1.2696399999549612,both,0.0,
S001,2.0,107,正式,Incongruent,y,1.0,846.7619953000103,847.496317800018,0.7343225000076927,正式,Incongruent,1.0,0.7343225000076927,both,0.0,
S001,2.0,108,正式,Incongruent,b,1.0,852.7637682000059,853.5995287999976,0.8357605999917723,正式,Incongruent,1.0,0.8357605999917723,both,0.0,
S001,2.0,109,正式,Incongruent,y,1.0,858.7660930000129,859.5495793999871,0.7834863999742083,正式,Incongruent,1.0,0.7834863999742083,both,0.0,
S001,2.0,110,正式,Incongruent,b,1.0,864.7669860000024,865.486334700021,0.7193487000185996,正式,Incongruent,1.0,0.7193487000185996,both,0.0,
S001,2.0,111,正式,Incongruent,y,1.0,880.7544038000051,882.1393210000242,1.3849172000191174,正式,Incongruent,1.0,1.3849172000191174,both,0.0,
S001,2.0,112,正式,Incongruent,b,1.0,886.7559932000004,887.7746939000208,1.0187007000204176,正式,Incongruent,1.0,1.0187007000204176,both,0.0,
S001,2.0,113,正式,Incongruent,y,1.0,892.7578848999692,894.0431407999713,1.285255900002085,正式,Incongruent,1.0,1.285255900002085,both,0.0,
S001,2.0,114,正式,Incongruent,b,1.0,898.7599735999829,899.7617519000196,1.0017783000366762,正式,Incongruent,1.0,1.0017783000366762,both,0.0,
S001,2.0,115,正式,Incongruent,y,0.0,904.760874199972,906.1293137000175,1.368439500045497,正式,Incongruent,0.0,1.368439500045497,both,0.0,
S001,2.0,116,正式,Incongruent,b,1.0,910.7625610000104,911.6641986999892,0.9016376999788918,正式,Incongruent,1.0,0.9016376999788918,both,0.0,
S001,2.0,117,正式,Incongruent,b,1.0,916.7647313000052,918.0333936000243,1.268662300019059,正式,Incongruent,1.0,1.268662300019059,both,0.0,
S001,2.0,118,正式,Incongruent,b,1.0,922.7657458999892,923.6669842000118,0.9012383000226692,正式,Incongruent,1.0,0.9012383000226692,both,0.0,
S001,2.0,119,正式,Incongruent,b,1.0,928.7506815000088,929.8198271999718,1.0691456999629736,正式,Incongruent,1.0,1.0691456999629736,both,0.0,
S001,2.0,120,正式,Incongruent,b,1.0,934.7527013000216,935.9041995999868,1.1514982999651693,正式,Incongruent,1.0,1.1514982999651693,both,0.0,
S002,1.0,1,練習,Congruent,y,1.0,16.053853999997955,17.06970510003157,1.0158511000336148,練習,Congruent,1.0,1.0158511000336148,both,0.0,
S002,1.0,2,練習,Congruent,b,1.0,22.056019900017414,22.974479500029698,0.9184596000122838,練習,Congruent,1.0,0.9184596000122838,both,0.0,
S002,1.0,3,練習,Congruent,b,1.0,28.041650900035165,28.97610100003658,0.9344501000014134,練習,Congruent,1.0,0.9344501000014134,both,0.0,
S002,1.0,4,練習,Congruent,y,1.0,34.04314880003221,34.810988100012764,0.767839299980551,練習,Congruent,1.0,0.767839299980551,both,0.0,
S002,1.0,5,練習,Congruent,b,1.0,40.044314500002656,41.04591550002806,1.0016010000254028,練習,Congruent,1.0,1.0016010000254028,both,0.0,
S002,1.0,6,練習,Congruent,b,1.0,46.04566370003158,47.14793540001847,1.1022716999868862,練習,Congruent,1.0,1.1022716999868862,both,0.0,
S002,1.0,7,練習,Congruent,b,1.0,52.04764679999789,52.78137969999807,0.7337329000001773,練習,Congruent,1.0,0.7337329000001773,both,0.0,
S002,1.0,8,練習,Congruent,y,1.0,58.04907499998808,59.016603800002486,0.9675288000144064,練習,Congruent,1.0,0.9675288000144064,both,0.0,
S002,1.0,9,練習,Congruent,y,1.0,64.05108559998916,64.86794900003588,0.8168634000467137,練習,Congruent,1.0,0.8168634000467137,both,0.0,
S002,1.0,10,練習,Congruent,y,1.0,70.05209539999487,70.95532800001092,0.9032326000160538,練習,Congruent,1.0,0.9032326000160538,both,0.0,
S002,1.0,11,正式,Congruent,y,1.0,86.10631420003483,87.05847749998793,0.9521632999530992,正式,Congruent,1.0,0.9521632999530992,both,0.0,
S002,1.0,12,正式,Congruent,b,1.0,92.09187230002136,93.00989680003842,0.9180245000170544,正式,Congruent,1.0,0.9180245000170544,both,0.0,
S002,1.0,13,正式,Congruent,y,1.0,98.09382730000652,98.86105170001974,0.7672244000132196,正式,Congruent,1.0,0.7672244000132196,both,0.0,
S002,1.0,14,正式,Congruent,b,1.0,104.09454000002006,104.87997519999044,0.7854351999703795,正式,Congruent,1.0,0.7854351999703795,both,0.0,
S002,1.0,15,正式,Congruent,b,1.0,110.09591830003774,111.04868300003,0.952764699992258,正式,Congruent,1.0,0.952764699992258,both,0.0,
S002,1.0,16,正式,Congruent,b,1.0,116.09823160001542,116.933559600031,0.8353280000155792,正式,Congruent,1.0,0.8353280000155792,both,0.0,
S002,1.0,17,正式,Congruent,y,1.0,122.10011490003671,123.15205949998926,1.0519445999525487,正式,Congruent,1.0,1.0519445999525487,both,0.0,
S002,1.0,18,正式,Congruent,b,1.0,128.10134920000564,128.95335910003632,0.85200990003068,正式,Congruent,1.0,0.85200990003068,both,0.0,
S002,1.0,19,正式,Congruent,y,1.0,134.10296650003875,134.87022869999055,0.7672621999518014,正式,Congruent,1.0,0.7672621999518014,both,0.0,
S002,1.0,20,正式,Congruent,y,1.0,140.10494190000463,141.15577970002778,1.050837800023146,正式,Congruent,1.0,1.050837800023146,both,0.0,
S002,1.0,21,正式,Congruent,y,1.0,156.0915873000049,156.79436709999572,0.7027797999908216,正式,Congruent,1.0,0.7027797999908216,both,0.0,
S002,1.0,22,正式,Congruent,y,1.0,162.09383289999096,162.7790312000434,0.6851983000524342,正式,Congruent,1.0,0.6851983000524342,both,0.0,
S002,1.0,23,正式,Congruent,y,1.0,168.09454580000602,168.9816033000243,0.8870575000182725,正式,Congruent,1.0,0.8870575000182725,both,0.0,
S002,1.0,24,正式,Congruent,y,1.0,174.09744139999384,174.93194010003936,0.8344987000455149,正式,Congruent,1.0,0.8344987000455149,both,0.0,
S002,1.0,25,正式,Congruent,b,1.0,180.09903300000587,180.8837240000139,0.7846910000080243,正式,Congruent,1.0,0.7846910000080243,both,0.0,
S002,1.0,26,正式,Congruent,y,1.0,186.10051060002297,186.90141400002176,0.8009033999987878,正式,Congruent,1.0,0.8009033999987878,both,0.0,
S002,1.0,27,正式,Congruent,y,1.0,192.10209010000108,192.88707260001684,0.784982500015758,正式,Congruent,1.0,0.784982500015758,both,0.0,
S002,1.0,28,正式,Congruent,b,1.0,198.1035679000197,199.12085890001617,1.017290999996476,正式,Congruent,1.0,1.017290999996476,both,0.0,
S002,1.0,29,正式,Congruent,b,1.0,204.10557130002417,204.92398600000888,0.8184146999847144,正式,Congruent,1.0,0.8184146999847144,both,0.0,
S002,1.0,30,正式,Congruent,y,1.0,210.09068369999292,211.17498010001142,1.084296400018502,正式,Congruent,1.0,1.084296400018502,both,0.0,
S002,1.0,31,正式,Congruent,y,1.0,226.09387929999505,226.9287743000314,0.8348950000363402,正式,Congruent,1.0,0.8348950000363402,both,0.0,
S002,1.0,32,正式,Congruent,b,1.0,232.09576330002164,233.29803830001038,1.202274999988731,正式,Congruent,1.0,1.202274999988731,both,0.0,
S002,1.0,33,正式,Congruent,y,1.0,238.0977256000042,238.91642040002625,0.8186948000220582,正式,Congruent,1.0,0.8186948000220582,both,0.0,
S002,1.0,34,正式,Congruent,y,1.0,244.0993376999977,244.86732140003005,0.767983700032346,正式,Congruent,1.0,0.767983700032346,both,0.0,
S002,1.0,35,正式,Congruent,b,1.0,250.1006262000301,251.33572650002316,1.2351002999930645,正式,Congruent,1.0,1.2351002999930645,both,0.0,
S002,1.0,36,正式,Congruent,y,1.0,256.1024994000327,256.85556230001384,0.7530628999811597,正式,Congruent,1.0,0.7530628999811597,both,0.0,
S002,1.0,37,正式,Congruent,b,1.0,262.1041259000194,263.0392633000156,0.9351373999961652,正式,Congruent,1.0,0.9351373999961652,both,0.0,
S002,1.0,38,正式,Congruent,b,1.0,268.1064361000317,269.02450150001096,0.9180653999792412,正式,Congruent,1.0,0.9180653999792412,both,0.0,
S002,1.0,39,正式,Congruent,b,1.0,274.10751960001653,275.05981529998826,0.952295699971728,正式,Congruent,1.0,0.952295699971728,both,0.0,
S002,1.0,40,正式,Congruent,b,1.0,280.09273100004066,280.9099505000049,0.817219499964267,正式,Congruent,1.0,0.817219499964267,both,0.0,
S002,1.0,41,正式,Congruent,b,1.0,296.0965970000252,296.9821308000246,0.8855337999993935,正式,Congruent,1.0,0.8855337999993935,both,0.0,
S002,1.0,42,正式,Congruent,y,1.0,302.0989038000116,302.8834986000438,0.7845948000322096,正式,Congruent,1.0,0.7845948000322096,both,0.0,
S002,1.0,43,正式,Congruent,b,1.0,308.09923360001994,308.9683453000034,0.8691116999834776,正式,Congruent,1.0,0.8691116999834776,both,0.0,
S002,1.0,44,正式,Congruent,b,1.0,314.10192019998794,315.2199585000053,1.1180383000173606,正式,Congruent,1.0,1.1180383000173606,both,0.0,
S002,1.0,45,正式,Congruent,b,1.0,320.1029067999916,321.0201793999877,0.9172725999960676,正式,Congruent,1.0,0.9172725999960676,both,0.0,
S002,1.0,46,正式,Congruent,y,1.0,326.1045485000359,326.88876070000697,0.7842121999710798,正式,Congruent,1.0,0.7842121999710798,both,0.0,
S002,1.0,47,正式,Congruent,y,1.0,332.10644220002,332.8900959999883,0.783653799968306,正式,Congruent,1.0,0.783653799968306,both,0.0,
S002,1.0,48,正式,Congruent,b,1.0,338.09151629998814,339.2937480999972,1.2022318000090308,正式,Congruent,1.0,1.2022318000090308,both,0.0,
S002,1.0,49,正式,Congruent,y,1.0,344.09302309999475,344.96099890000187,0.867975800007116,正式,Congruent,1.0,0.867975800007116,both,0.0,
S002,1.0,50,正式,Congruent,b,1.0,350.0951997000375,350.91196800000034,0.8167682999628596,正式,Congruent,1.0,0.8167682999628596,both,0.0,
S002,1.0,51,正式,Congruent,b,1.0,366.0988294000272,366.93399739998864,0.8351679999614134,正式,Congruent,1.0,0.8351679999614134,both,0.0,
S002,1.0,52,正式,Congruent,y,1.0,372.10009690001607,372.90202080004383,0.8019239000277594,正式,Congruent,1.0,0.8019239000277594,both,0.0,
S002,1.0,53,正式,Congruent,y,1.0,378.10277480003424,379.1702199000283,1.0674450999940746,正式,Congruent,1.0,1.0674450999940746,both,0.0,
S002,1.0,54,正式,Congruent,b,1.0,384.1036807000055,385.2047948000254,1.1011141000199132,正式,Congruent,1.0,1.1011141000199132,both,0.0,
S002,1.0,55,正式,Congruent,b,1.0,390.1058643000433,391.0908502000384,0.9849858999950812,正式,Congruent,1.0,0.9849858999950812,both,0.0,
S002,1.0,56,正式,Congruent,y,1.0,396.0908571000328,396.77629539999185,0.6854382999590598,正式,Congruent,1.0,0.6854382999590598,both,0.0,
S002,1.0,57,正式,Congruent,y,1.0,402.0913286000141,403.143955400039,1.052626800024882,正式,Congruent,1.0,1.052626800024882,both,0.0,
S002,1.0,58,正式,Congruent,y,1.0,408.0933913000045,408.74585730000405,0.6524659999995492,正式,Congruent,1.0,0.6524659999995492,both,0.0,
S002,1.0,59,正式,Congruent,b,1.0,414.0951201000135,414.99608780001296,0.9009676999994554,正式,Congruent,1.0,0.9009676999994554,both,0.0,
S002,1.0,60,正式,Congruent,b,1.0,420.0962479999871,420.93137070001103,0.8351227000239305,正式,Congruent,1.0,0.8351227000239305,both,0.0,
S002,2.0,61,練習,Incongruent,,0.0,509.5875556000392,,,練習,Incongruent,0.0,,both,,
S002,2.0,62,練習,Incongruent,b,1.0,515.5732232999871,516.5920494000311,1.0188261000439525,練習,Incongruent,1.0,1.0188261000439525,both,0.0,
S002,2.0,63,練習,Incongruent,b,1.0,521.5744607000379,522.8443036000244,1.2698428999865428,練習,Incongruent,1.0,1.2698428999865428,both,0.0,
S002,2.0,64,練習,Incongruent,b,1.0,527.5760300999973,528.4105821000412,0.8345520000439137,練習,Incongruent,1.0,0.8345520000439137,both,0.0,
S002,2.0,65,練習,Incongruent,y,1.0,533.5772836999968,534.8125030000228,1.235219300026074,練習,Incongruent,1.0,1.235219300026074,both,0.0,
S002,2.0,66,練習,Incongruent,y,1.0,539.5787946000346,540.3476131000207,0.7688184999860823,練習,Incongruent,1.0,0.7688184999860823,both,0.0,
S002,2.0,67,練習,Incongruent,y,1.0,545.5812854000251,546.649356400012,1.0680709999869578,練習,Incongruent,1.0,1.0680709999869578,both,0.0,
S002,2.0,68,練習,Incongruent,y,0.0,551.5825979000074,552.9660282999976,1.383430399990175,練習,Incongruent,0.0,1.383430399990175,both,0.0,
S002,2.0,69,練習,Incongruent,y,1.0,557.5837221000111,558.7348315000418,1.1511094000306912,練習,Incongruent,1.0,1.1511094000306912,both,0.0,
S002,2.0,70,練習,Incongruent,y,1.0,563.5853867999977,564.8196912000421,1.2343044000444934,練習,Incongruent,1.0,1.2343044000444934,both,0.0,
S002,2.0,71,正式,Incongruent,,0.0,579.6232913000276,,,正式,Incongruent,0.0,,both,,
S002,2.0,72,正式,Incongruent,b,1.0,585.624502599996,586.9092085000011,1.284705900005065,正式,Incongruent,1.0,1.284705900005065,both,0.0,
S002,2.0,73,正式,Incongruent,y,1.0,591.6266214000061,592.9286687000422,1.3020473000360653,正式,Incongruent,1.0,1.3020473000360653,both,0.0,
S002,2.0,74,正式,Incongruent,y,1.0,597.6117175000254,598.8625279000262,1.2508104000007734,正式,Incongruent,1.0,1.2508104000007734,both,0.0,
S002,2.0,75,正式,Incongruent,y,1.0,603.6134449000238,604.3643317000242,0.750886800000444,正式,Incongruent,1.0,0.750886800000444,both,0.0,
S002,2.0,76,正式,Incongruent,b,1.0,609.6141817999887,610.3830215000198,0.7688397000310943,正式,Incongruent,1.0,0.7688397000310943,both,0.0,
S002,2.0,77,正式,Incongruent,b,1.0,615.6164895000402,616.8353740000166,1.2188844999764117,正式,Incongruent,1.0,1.2188844999764117,both,0.0,
S002,2.0,78,正式,Incongruent,b,1.0,621.6171604000265,622.9182053999975,1.3010449999710545,正式,Incongruent,1.0,1.3010449999710545,both,0.0,
S002,2.0,79,正式,Incongruent,b,1.0,627.6198812000221,628.2705934999976,0.6507122999755666,正式,Incongruent,1.0,0.6507122999755666,both,0.0,
S002,2.0,80,正式,Incongruent,y,1.0,633.6215023000259,634.4552880999981,0.8337857999722473,正式,Incongruent,1.0,0.8337857999722473,both,0.0,
S002,2.0,81,正式,Incongruent,b,1.0,649.625525200041,650.5779421000043,0.952416899963282,正式,Incongruent,1.0,0.952416899963282,both,0.0,
S002,2.0,82,正式,Incongruent,y,1.0,655.6110087000416,656.5627754000016,0.9517666999599896,正式,Incongruent,1.0,0.9517666999599896,both,0.0,
S002,2.0,83,正式,Incongruent,y,1.0,661.6123233000399,662.4971147000324,0.8847913999925368,正式,Incongruent,1.0,0.8847913999925368,both,0.0,
S002,2.0,84,正式,Incongruent,b,1.0,667.6135827000253,668.4488208999974,0.8352381999720819,正式,Incongruent,1.0,0.8352381999720819,both,0.0,
S002,2.0,85,正式,Incongruent,y,1.0,673.6151767999982,674.4831950000371,0.8680182000389323,正式,Incongruent,1.0,0.8680182000389323,both,0.0,
S002,2.0,86,正式,Incongruent,y,1.0,679.6162989999866,680.351061000023,0.7347620000364259,正式,Incongruent,1.0,0.7347620000364259,both,0.0,
S002,2.0,87,正式,Incongruent,b,1.0,685.6183336999966,687.0358815999934,1.4175478999968618,正式,Incongruent,1.0,1.4175478999968618,both,0.0,
S002,2.0,88,正式,Incongruent,b,1.0,691.6203717000317,692.7377219999908,1.117350299959071,正式,Incongruent,1.0,1.117350299959071,both,0.0,
S002,2.0,89,正式,Incongruent,y,1.0,697.6218191999942,698.6389015000314,1.0170823000371456,正式,Incongruent,1.0,1.0170823000371456,both,0.0,
S002,2.0,90,正式,Incongruent,b,1.0,703.6238016000134,705.0247314000153,1.4009298000019044,正式,Incongruent,1.0,1.4009298000019044,both,0.0,
S002,2.0,91,正式,Incongruent,y,1.0,719.6108733000001,720.6610489999875,1.0501756999874488,正式,Incongruent,1.0,1.0501756999874488,both,0.0,
S002,2.0,92,正式,Incongruent,y,1.0,725.6125352000236,726.3959934000159,0.7834581999923103,正式,Incongruent,1.0,0.7834581999923103,both,0.0,
S002,2.0,93,正式,Incongruent,b,1.0,731.6141081000096,732.5493710000301,0.9352629000204616,正式,Incongruent,1.0,0.9352629000204616,both,0.0,
S002,2.0,94,正式,Incongruent,b,1.0,737.6156758000143,738.8858545999974,1.270178799983114,正式,Incongruent,1.0,1.270178799983114,both,0.0,
S002,2.0,95,正式,Incongruent,y,1.0,743.616879600042,744.7852745000273,1.1683948999852871,正式,Incongruent,1.0,1.1683948999852871,both,0.0,
S002,2.0,96,正式,Incongruent,y,1.0,749.6193164000288,750.3541538999998,0.7348374999710359,正式,Incongruent,1.0,0.7348374999710359,both,0.0,
S002,2.0,97,正式,Incongruent,y,1.0,755.6207141000195,756.3728250000277,0.7521109000081196,正式,Incongruent,1.0,0.7521109000081196,both,0.0,
S002,2.0,98,正式,Incongruent,b,1.0,761.6217184000416,762.4903062999947,0.8685878999531269,正式,Incongruent,1.0,0.8685878999531269,both,0.0,
S002,2.0,99,正式,Incongruent,b,1.0,767.624283400015,768.558245000022,0.9339616000070236,正式,Incongruent,1.0,0.9339616000070236,both,0.0,
S002,2.0,100,正式,Incongruent,y,1.0,773.6252619000152,774.7450762999943,1.1198143999790773,正式,Incongruent,1.0,1.1198143999790773,both,0.0,
S002,2.0,101,正式,Incongruent,y,0.0,789.6132375000161,790.9314268000307,1.3181893000146374,正式,Incongruent,0.0,1.3181893000146374,both,0.0,
S002,2.0,102,正式,Incongruent,b,1.0,795.6150628000032,796.8660696999868,1.251006899983622,正式,Incongruent,1.0,1.251006899983622,both,0.0,
S002,2.0,103,正式,Incongruent,y,1.0,801.616641700035,802.4190954000223,0.8024536999873817,正式,Incongruent,1.0,0.8024536999873817,both,0.0,
S002,2.0,104,正式,Incongruent,b,1.0,807.6175333000137,808.9200575000141,1.3025242000003343,正式,Incongruent,1.0,1.3025242000003343,both,0.0,
S002,2.0,105,正式,Incongruent,b,1.0,813.6201128000394,814.4702820000239,0.8501691999845207,正式,Incongruent,1.0,0.8501691999845207,both,0.0,
S002,2.0,106,正式,Incongruent,y,1.0,819.6217277999967,820.9559594999882,1.3342316999915056,正式,Incongruent,1.0,1.3342316999915056,both,0.0,
S002,2.0,107,正式,Incongruent,b,0.0,825.6230260999873,826.639954400016,1.0169283000286669,正式,Incongruent,0.0,1.0169283000286669,both,0.0,
S002,2.0,108,正式,Incongruent,b,1.0,831.6241277999943,832.594197700033,0.970069900038652,正式,Incongruent,1.0,0.970069900038652,both,0.0,
S002,2.0,109,正式,Incongruent,y,1.0,837.6266926000244,838.8783361000242,1.2516434999997728,正式,Incongruent,1.0,1.2516434999997728,both,0.0,
S002,2.0,110,正式,Incongruent,y,1.0,843.6113994999905,845.0288778000395,1.4174783000489697,正式,Incongruent,1.0,1.4174783000489697,both,0.0,
S002,2.0,111,正式,Incongruent,b,1.0,859.6153155000065,860.5997755000135,0.9844600000069476,正式,Incongruent,1.0,0.9844600000069476,both,0.0,
S002,2.0,112,正式,Incongruent,y,1.0,865.617296100012,866.5013622000115,0.8840660999994725,正式,Incongruent,1.0,0.8840660999994725,both,0.0,
S002,2.0,113,正式,Incongruent,y,1.0,871.6185229000403,872.3541266000248,0.7356036999844946,正式,Incongruent,1.0,0.7356036999844946,both,0.0,
S002,2.0,114,正式,Incongruent,b,1.0,877.6200160000008,878.4047867000336,0.7847707000328228,正式,Incongruent,1.0,0.7847707000328228,both,0.0,
S002,2.0,115,正式,Incongruent,y,1.0,883.6220667000161,884.523491800006,0.901425099989865,正式,Incongruent,1.0,0.901425099989865,both,0.0,
S002,2.0,116,正式,Incongruent,b,1.0,889.6233545000432,890.490672999993,0.8673184999497607,正式,Incongruent,1.0,0.8673184999497607,both,0.0,
S002,2.0,117,正式,Incongruent,y,1.0,895.6257411999977,896.4103362000315,0.7845950000337325,正式,Incongruent,1.0,0.7845950000337325,both,0.0,
S002,2.0,118,正式,Incongruent,b,1.0,901.6108942000428,902.595332500001,0.9844382999581284,正式,Incongruent,1.0,0.9844382999581284,both,0.0,
S002,2.0,119,正式,Incongruent,,0.0,907.6119001000188,,,正式,Incongruent,0.0,,both,,
S002,2.0,120,正式,Incongruent,y,1.0,913.6130195999868,914.997779300029,1.3847597000421956,正式,Incongruent,1.0,1.3847597000421956,both,0.0,
S003,1.0,1,練習,Congruent,b,1.0,16.0541923000128,16.936703699990176,0.8825113999773748,練習,Congruent,1.0,0.8825113999773748,both,0.0,
S003,1.0,2,練習,Congruent,y,1.0,22.055961000034586,23.12340690003475,1.067445900000166,練習,Congruent,1.0,1.067445900000166,both,0.0,
S003,1.0,3,練習,Congruent,,0.0,28.040603899979036,,,練習,Congruent,0.0,,both,,
S003,1.0,4,練習,Congruent,b,0.0,34.04314930003602,35.52754430001369,1.4843949999776669,練習,Congruent,0.0,1.4843949999776669,both,0.0,
S003,1.0,5,練習,Congruent,y,1.0,40.04457979998551,41.27975799998967,1.235178200004157,練習,Congruent,1.0,1.235178200004157,both,0.0,
S003,1.0,6,練習,Congruent,,0.0,46.04572669998743,,,練習,Congruent,0.0,,both,,
S003,1.0,7,練習,Congruent,b,1.0,52.047990299994126,52.965740500018,0.9177502000238746,練習,Congruent,1.0,0.9177502000238746,both,0.0,
S003,1.0,8,練習,Congruent,b,1.0,58.04921710002236,59.41777300002286,1.3685559000005014,練習,Congruent,1.0,1.3685559000005014,both,0.0,
S003,1.0,9,練習,Congruent,b,1.0,64.04998840001645,64.98475260002306,0.9347642000066116,練習,Congruent,1.0,0.9347642000066116,both,0.0,
S003,1.0,10,練習,Congruent,y,1.0,70.05222300003516,70.93717390001984,0.8849508999846876,練習,Congruent,1.0,0.8849508999846876,both,0.0,
S003,1.0,11,正式,Congruent,b,1.0,86.10687600000529,86.8076947000227,0.7008187000174075,正式,Congruent,1.0,0.7008187000174075,both,0.0,
S003,1.0,12,正式,Congruent,b,0.0,92.09199370001444,93.22609030001333,1.134096599998884,正式,Congruent,0.0,1.134096599998884,both,0.0,
S003,1.0,13,正式,Congruent,b,1.0,98.09295850002673,98.96255850000307,0.8695999999763444,正式,Congruent,1.0,0.8695999999763444,both,0.0,
S003,1.0,14,正式,Congruent,b,0.0,104.09531940001762,105.56272829999216,1.4674088999745436,正式,Congruent,0.0,1.4674088999745436,both,0.0,
S003,1.0,15,正式,Congruent,b,1.0,110.09637230000226,111.16407739999704,1.0677050999947824,正式,Congruent,1.0,1.0677050999947824,both,0.0,
S003,1.0,16,正式,Congruent,b,1.0,116.09785989997908,116.96590449998621,0.8680446000071242,正式,Congruent,1.0,0.8680446000071242,both,0.0,
S003,1.0,17,正式,Congruent,b,1.0,122.09966000000712,123.16786400001727,1.0682040000101551,正式,Congruent,1.0,1.0682040000101551,both,0.0,
S003,1.0,18,正式,Congruent,y,1.0,128.101387600007,129.0194482000079,0.9180606000008992,正式,Congruent,1.0,0.9180606000008992,both,0.0,
S003,1.0,19,正式,Congruent,y,1.0,134.10300790000474,134.8896614999976,0.7866535999928601,正式,Congruent,1.0,0.7866535999928601,both,0.0,
S003,1.0,20,正式,Congruent,y,1.0,140.1041172000114,140.80740910000168,0.7032918999902904,正式,Congruent,1.0,0.7032918999902904,both,0.0,
S003,1.0,21,正式,Congruent,y,0.0,156.09251889999723,157.14304290001746,1.050524000020232,正式,Congruent,0.0,1.050524000020232,both,0.0,
S003,1.0,22,正式,Congruent,b,1.0,162.09408940002322,163.07893750001676,0.9848480999935418,正式,Congruent,1.0,0.9848480999935418,both,0.0,
S003,1.0,23,正式,Congruent,b,1.0,168.09517990000313,168.86281180003425,0.7676319000311196,正式,Congruent,1.0,0.7676319000311196,both,0.0,
S003,1.0,24,正式,Congruent,b,0.0,174.09660669998266,175.43125650001457,1.3346498000319116,正式,Congruent,0.0,1.3346498000319116,both,0.0,
S003,1.0,25,正式,Congruent,b,1.0,180.09871140000178,181.43343580001965,1.3347244000178762,正式,Congruent,1.0,1.3347244000178762,both,0.0,
S003,1.0,26,正式,Congruent,y,1.0,186.1008016000269,187.13505819998682,1.0342565999599174,正式,Congruent,1.0,1.0342565999599174,both,0.0,
S003,1.0,27,正式,Congruent,y,1.0,192.1018439999898,192.95413389999885,0.8522899000090547,正式,Congruent,1.0,0.8522899000090547,both,0.0,
S003,1.0,28,正式,Congruent,y,1.0,198.10346549999667,198.75444889999926,0.6509834000025876,正式,Congruent,1.0,0.6509834000025876,both,0.0,
S003,1.0,29,正式,Congruent,b,1.0,204.10561899997992,205.08887149998918,0.9832525000092572,正式,Congruent,1.0,0.9832525000092572,both,0.0,
S003,1.0,30,正式,Congruent,y,1.0,210.10687020001933,211.35839489998762,1.251524699968286,正式,Congruent,1.0,1.251524699968286,both,0.0,
S003,1.0,31,正式,Congruent,y,1.0,226.0948848000262,226.96316530002514,0.8682804999989457,正式,Congruent,1.0,0.8682804999989457,both,0.0,
S003,1.0,32,正式,Congruent,b,1.0,232.09630809997907,233.19859069999075,1.1022826000116763,正式,Congruent,1.0,1.1022826000116763,both,0.0,
S003,1.0,33,正式,Congruent,b,1.0,238.09759040002243,239.16558329999677,1.0679928999743424,正式,Congruent,1.0,1.0679928999743424,both,0.0,
S003,1.0,34,正式,Congruent,b,1.0,244.09966800000984,244.86750490003033,0.7678369000204839,正式,Congruent,1.0,0.7678369000204839,both,0.0,
S003,1.0,35,正式,Congruent,b,1.0,250.10146620002345,251.03629070002356,0.9348245000001044,正式,Congruent,1.0,0.9348245000001044,both,0.0,
S003,1.0,36,正式,Congruent,y,1.0,256.10233780002454,256.8202051999979,0.7178673999733292,正式,Congruent,1.0,0.7178673999733292,both,0.0,
S003,1.0,37,正式,Congruent,y,0.0,262.1038820000249,262.87284389999695,0.7689618999720551,正式,Congruent,0.0,0.7689618999720551,both,0.0,
S003,1.0,38,正式,Congruent,b,1.0,268.10634910000954,268.99062569998205,0.8842765999725088,正式,Congruent,1.0,0.8842765999725088,both,0.0,
S003,1.0,39,正式,Congruent,y,1.0,274.10779919999186,274.8764988000039,0.7686996000120416,正式,Congruent,1.0,0.7686996000120416,both,0.0,
S003,1.0,40,正式,Congruent,y,1.0,280.0924602000159,280.9777854999993,0.8853252999833785,正式,Congruent,1.0,0.8853252999833785,both,0.0,
S003,1.0,41,正式,Congruent,y,0.0,296.0966458999901,297.2313138000318,1.134667900041677,正式,Congruent,0.0,1.134667900041677,both,0.0,
S003,1.0,42,正式,Congruent,b,1.0,302.09759070002474,303.2845464000129,1.1869556999881752,正式,Congruent,1.0,1.1869556999881752,both,0.0,
S003,1.0,43,正式,Congruent,y,1.0,308.1001641000039,309.1674626999884,1.0672985999844968,正式,Congruent,1.0,1.0672985999844968,both,0.0,
S003,1.0,44,正式,Congruent,b,1.0,314.10151120001683,314.8705248000333,0.7690136000164784,正式,Congruent,1.0,0.7690136000164784,both,0.0,
S003,1.0,45,正式,Congruent,b,1.0,320.1031232000096,320.88877860002685,0.7856554000172764,正式,Congruent,1.0,0.7856554000172764,both,0.0,
S003,1.0,46,正式,Congruent,b,1.0,326.1043874000316,326.90717570000567,0.8027882999740541,正式,Congruent,1.0,0.8027882999740541,both,0.0,
S003,1.0,47,正式,Congruent,y,1.0,332.1062123000156,332.92378429998644,0.8175719999708235,正式,Congruent,1.0,0.8175719999708235,both,0.0,
S003,1.0,48,正式,Congruent,b,1.0,338.0914579000091,338.9925485000131,0.901090600003954,正式,Congruent,1.0,0.901090600003954,both,0.0,
S003,1.0,49,正式,Congruent,b,1.0,344.09294450003654,344.96116060001077,0.8682160999742337,正式,Congruent,1.0,0.8682160999742337,both,0.0,
S003,1.0,50,正式,Congruent,y,1.0,350.0949303000234,350.8618461000151,0.7669157999916933,正式,Congruent,1.0,0.7669157999916933,both,0.0,
S003,1.0,51,正式,Congruent,b,1.0,366.09880000003614,366.9347045000177,0.8359044999815524,正式,Congruent,1.0,0.8359044999815524,both,0.0,
S003,1.0,52,正式,Congruent,b,1.0,372.1004180000164,372.78656370000687,0.6861456999904476,正式,Congruent,1.0,0.6861456999904476,both,0.0,
S003,1.0,53,正式,Congruent,y,1.0,378.1021675000084,379.0527740999824,0.9506065999739804,正式,Congruent,1.0,0.9506065999739804,both,0.0,
S003,1.0,54,正式,Congruent,y,1.0,384.1032897999976,384.75449940003455,0.6512096000369638,正式,Congruent,1.0,0.6512096000369638,both,0.0,
S003,1.0,55,正式,Congruent,y,1.0,390.1049394999864,390.9391414999846,0.8342019999981858,正式,Congruent,1.0,0.8342019999981858,both,0.0,
S003,1.0,56,正式,Congruent,b,0.0,396.10685500002,397.30844100000104,1.2015859999810343,正式,Congruent,0.0,1.2015859999810343,both,0.0,
S003,1.0,57,正式,Congruent,y,1.0,402.091794500011,402.9424644000246,0.8506699000135995,正式,Congruent,1.0,0.8506699000135995,both,0.0,
S003,1.0,58,正式,Congruent,y,1.0,408.09378840000136,408.7624897999922,0.6687013999908231,正式,Congruent,1.0,0.6687013999908231,both,0.0,
S003,1.0,59,正式,Congruent,y,1.0,414.0955588000361,414.9129626000067,0.8174037999706343,正式,Congruent,1.0,0.8174037999706343,both,0.0,
S003,1.0,60,正式,Congruent,y,1.0,420.09641599998577,420.84872180002276,0.7523058000369929,正式,Congruent,1.0,0.7523058000369929,both,0.0,
S003,2.0,61,練習,Incongruent,b,1.0,526.7926676000352,527.5774698000168,0.784802199981641,練習,Incongruent,1.0,0.784802199981641,both,0.0,
S003,2.0,62,練習,Incongruent,y,1.0,532.7931659999886,534.1772277000127,1.3840617000241764,練習,Incongruent,1.0,1.3840617000241764,both,0.0,
S003,2.0,63,練習,Incongruent,b,1.0,538.7964876000187,539.8128317000228,1.016344100004062,練習,Incongruent,1.0,1.016344100004062,both,0.0,
S003,2.0,64,練習,Incongruent,y,1.0,544.7971538000274,546.1490235999809,1.3518697999534195,練習,Incongruent,1.0,1.3518697999534195,both,0.0,
S003,2.0,65,練習,Incongruent,b,1.0,550.7989217999857,551.967331700027,1.168409900041297,練習,Incongruent,1.0,1.168409900041297,both,0.0,
S003,2.0,66,練習,Incongruent,y,1.0,556.800282399985,557.7512492000242,0.9509668000391684,練習,Incongruent,1.0,0.9509668000391684,both,0.0,
S003,2.0,67,練習,Incongruent,y,1.0,562.8021297000232,563.7871216000058,0.9849918999825604,練習,Incongruent,1.0,0.9849918999825604,both,0.0,
S003,2.0,68,練習,Incongruent,y,1.0,568.8033282000106,570.0377989999834,1.2344707999727689,練習,Incongruent,1.0,1.2344707999727689,both,0.0,
S003,2.0,69,練習,Incongruent,b,1.0,574.8055648999871,575.6394161999924,0.8338513000053354,練習,Incongruent,1.0,0.8338513000053354,both,0.0,
S003,2.0,70,練習,Incongruent,y,1.0,580.8069490999915,581.8749154999969,1.067966400005389,練習,Incongruent,1.0,1.067966400005389,both,0.0,
S003,2.0,71,正式,Incongruent,b,1.0,596.8441201000242,597.9972622999921,1.1531421999679878,正式,Incongruent,1.0,1.1531421999679878,both,0.0,
S003,2.0,72,正式,Incongruent,b,1.0,602.84597080003,604.0320435999893,1.18607279995922,正式,Incongruent,1.0,1.18607279995922,both,0.0,
S003,2.0,73,正式,Incongruent,y,1.0,608.8312206999981,609.5822667999892,0.751046099991072,正式,Incongruent,1.0,0.751046099991072,both,0.0,
S003,2.0,74,正式,Incongruent,b,1.0,614.8326013000333,616.1676984999795,1.3350971999461765,正式,Incongruent,1.0,1.3350971999461765,both,0.0,
S003,2.0,75,正式,Incongruent,,0.0,620.8338743000058,,,正式,Incongruent,0.0,,both,,
S003,2.0,76,正式,Incongruent,y,1.0,626.8359026000253,627.9365808999864,1.100678299961146,正式,Incongruent,1.0,1.100678299961146,both,0.0,
S003,2.0,77,正式,Incongruent,b,1.0,632.837587099988,633.6878657999914,0.8502787000034004,正式,Incongruent,1.0,0.8502787000034004,both,0.0,
S003,2.0,78,正式,Incongruent,y,1.0,638.840030100022,639.8081920000259,0.9681619000039065,正式,Incongruent,1.0,0.9681619000039065,both,0.0,
S003,2.0,79,正式,Incongruent,b,1.0,644.8402155999793,645.892437100003,1.0522215000237338,正式,Incongruent,1.0,1.0522215000237338,both,0.0,
S003,2.0,80,正式,Incongruent,y,1.0,650.8429966000258,651.8278134000138,0.9848167999880388,正式,Incongruent,1.0,0.9848167999880388,both,0.0,
S003,2.0,81,正式,Incongruent,y,1.0,666.8465951000107,668.2981365000014,1.451541399990674,正式,Incongruent,1.0,1.451541399990674,both,0.0,
S003,2.0,82,正式,Incongruent,b,1.0,672.8312713000341,673.6660983000183,0.834826999984216,正式,Incongruent,1.0,0.834826999984216,both,0.0,
S003,2.0,83,正式,Incongruent,y,1.0,678.8329643000034,679.7843377999961,0.9513734999927692,正式,Incongruent,1.0,0.9513734999927692,both,0.0,
S003,2.0,84,正式,Incongruent,b,1.0,684.8350944999838,685.6040190000203,0.768924500036519,正式,Incongruent,1.0,0.768924500036519,both,0.0,
S003,2.0,85,正式,Incongruent,b,1.0,690.8364282000111,692.0386621000362,1.2022339000250213,正式,Incongruent,1.0,1.2022339000250213,both,0.0,
S003,2.0,86,正式,Incongruent,b,1.0,696.8378341000061,697.6235671000322,0.7857330000260845,正式,Incongruent,1.0,0.7857330000260845,both,0.0,
S003,2.0,87,正式,Incongruent,b,1.0,702.8396018000203,703.9235739000142,1.0839720999938436,正式,Incongruent,1.0,1.0839720999938436,both,0.0,
S003,2.0,88,正式,Incongruent,y,1.0,708.841691699985,709.6761457999819,0.8344540999969468,正式,Incongruent,1.0,0.8344540999969468,both,0.0,
S003,2.0,89,正式,Incongruent,y,1.0,714.8429027000093,715.8274300000048,0.984527299995534,正式,Incongruent,1.0,0.984527299995534,both,0.0,
S003,2.0,90,正式,Incongruent,b,1.0,720.8440736000193,722.3298326000222,1.4857590000028722,正式,Incongruent,1.0,1.4857590000028722,both,0.0,
S003,2.0,91,正式,Incongruent,y,1.0,736.832273499982,737.7181206999812,0.8858471999992616,正式,Incongruent,1.0,0.8858471999992616,both,0.0,
S003,2.0,92,正式,Incongruent,y,1.0,742.8341201000148,743.8194398999913,0.9853197999764234,正式,Incongruent,1.0,0.9853197999764234,both,0.0,
S003,2.0,93,正式,Incongruent,b,1.0,748.8352157000336,749.8528639000142,1.0176481999806128,正式,Incongruent,1.0,1.0176481999806128,both,0.0,
S003,2.0,94,正式,Incongruent,b,1.0,754.8368861000054,755.6054203999811,0.7685342999757268,正式,Incongruent,1.0,0.7685342999757268,both,0.0,
S003,2.0,95,正式,Incongruent,b,1.0,760.8387497999938,762.2403878000332,1.4016380000393838,正式,Incongruent,1.0,1.4016380000393838,both,0.0,
S003,2.0,96,正式,Incongruent,y,0.0,766.8399069000152,768.1580358000356,1.3181289000203833,正式,Incongruent,0.0,1.3181289000203833,both,0.0,
S003,2.0,97,正式,Incongruent,y,1.0,772.8421708000242,773.7264175000018,0.8842466999776661,正式,Incongruent,1.0,0.8842466999776661,both,0.0,
S003,2.0,98,正式,Incongruent,y,1.0,778.8440685999813,779.8120487999986,0.9679802000173368,正式,Incongruent,1.0,0.9679802000173368,both,0.0,
S003,2.0,99,正式,Incongruent,y,1.0,784.8448468000279,785.8798806000268,1.035033799998928,正式,Incongruent,1.0,1.035033799998928,both,0.0,
S003,2.0,100,正式,Incongruent,y,1.0,790.8466599999811,791.6826516999863,0.8359917000052519,正式,Incongruent,1.0,0.8359917000052519,both,0.0,
S003,2.0,101,正式,Incongruent,b,1.0,806.8340637999936,807.5523075999808,0.7182437999872491,正式,Incongruent,1.0,0.7182437999872491,both,0.0,
S003,2.0,102,正式,Incongruent,b,1.0,812.8364538000314,813.7207352999831,0.8842814999516122,正式,Incongruent,1.0,0.8842814999516122,both,0.0,
S003,2.0,103,正式,Incongruent,b,1.0,818.837724699988,819.5227422000025,0.68501750001451,正式,Incongruent,1.0,0.68501750001451,both,0.0,
S003,2.0,104,正式,Incongruent,y,1.0,824.8395881000324,825.6075973000261,0.7680091999936849,正式,Incongruent,1.0,0.7680091999936849,both,0.0,
S003,2.0,105,正式,Incongruent,y,1.0,830.8408644000301,831.6584639000357,0.8175995000055991,正式,Incongruent,1.0,0.8175995000055991,both,0.0,
S003,2.0,106,正式,Incongruent,y,1.0,836.8427365000243,837.6770474999794,0.8343109999550506,正式,Incongruent,1.0,0.8343109999550506,both,0.0,
S003,2.0,107,正式,Incongruent,y,1.0,842.8439368000254,843.5948861000361,0.7509493000106886,正式,Incongruent,1.0,0.7509493000106886,both,0.0,
S003,2.0,108,正式,Incongruent,y,1.0,848.8458235000144,849.8798926000018,1.0340690999873914,正式,Incongruent,1.0,1.0340690999873914,both,0.0,
S003,2.0,109,正式,Incongruent,y,1.0,854.8306481000036,855.9151378999813,1.084489799977746,正式,Incongruent,1.0,1.084489799977746,both,0.0,
S003,2.0,110,正式,Incongruent,y,1.0,860.8325087000267,861.6326757000061,0.8001669999794103,正式,Incongruent,1.0,0.8001669999794103,both,0.0,
S003,2.0,111,正式,Incongruent,b,1.0,876.8366363000241,877.7549784000148,0.9183420999906956,正式,Incongruent,1.0,0.9183420999906956,both,0.0,
S003,2.0,112,正式,Incongruent,b,1.0,882.8379677000339,883.4397771999938,0.601809499959927,正式,Incongruent,1.0,0.601809499959927,both,0.0,
S003,2.0,113,正式,Incongruent,y,1.0,888.8401667000144,889.6419570000144,0.8017902999999933,正式,Incongruent,1.0,0.8017902999999933,both,0.0,
S003,2.0,114,正式,Incongruent,y,1.0,894.8412987000193,895.7085627000197,0.8672640000004321,正式,Incongruent,1.0,0.8672640000004321,both,0.0,
S003,2.0,115,正式,Incongruent,y,1.0,900.8429274000227,901.6260055000312,0.7830781000084244,正式,Incongruent,1.0,0.7830781000084244,both,0.0,
S003,2.0,116,正式,Incongruent,b,1.0,906.8442005999968,907.8782355000149,1.034034900018014,正式,Incongruent,1.0,1.034034900018014,both,0.0,
S003,2.0,117,正式,Incongruent,y,1.0,912.8460355999996,913.597384600027,0.7513490000274032,正式,Incongruent,1.0,0.7513490000274032,both,0.0,
S003,2.0,118,正式,Incongruent,b,1.0,918.8315242999817,919.6999132999919,0.868389000010211,正式,Incongruent,1.0,0.868389000010211,both,0.0,
S003,2.0,119,正式,Incongruent,b,1.0,924.833532300021,925.5680545000359,0.7345222000149079,正式,Incongruent,1.0,0.7345222000149079,both,0.0,
S003,2.0,120,正式,Incongruent,y,1.0,930.834758699988,931.5193579000188,0.6845992000307888,正式,Incongruent,1.0,0.6845992000307888,both,0.0,
S004,1.0,1,練習,Congruent,b,1.0,16.05420219991356,16.864785999991,0.8105838000774384,練習,Congruent,1.0,0.8105838000774384,both,0.0,
S004,1.0,2,練習,Congruent,b,1.0,22.05579889996443,22.841474100016057,0.785675200051628,練習,Congruent,1.0,0.785675200051628,both,0.0,
S004,1.0,3,練習,Congruent,b,0.0,28.040893099969253,28.87542019993998,0.8345270999707282,練習,Congruent,0.0,0.8345270999707282,both,0.0,
S004,1.0,4,練習,Congruent,b,1.0,34.04201129998546,34.761343399994075,0.7193321000086144,練習,Congruent,1.0,0.7193321000086144,both,0.0,
S004,1.0,5,練習,Congruent,b,1.0,40.0443250000244,40.794369200011715,0.7500441999873146,練習,Congruent,1.0,0.7500441999873146,both,0.0,
S004,1.0,6,練習,Congruent,y,1.0,46.04445940000005,46.832060399930924,0.7876009999308735,練習,Congruent,1.0,0.7876009999308735,both,0.0,
S004,1.0,7,練習,Congruent,b,1.0,52.04734739998821,52.86675509996712,0.8194076999789104,練習,Congruent,1.0,0.8194076999789104,both,0.0,
S004,1.0,8,練習,Congruent,y,1.0,58.04819789994508,58.76578559994232,0.7175876999972388,練習,Congruent,1.0,0.7175876999972388,both,0.0,
S004,1.0,9,練習,Congruent,y,1.0,64.05058729997836,64.70262779993936,0.6520404999610037,練習,Congruent,1.0,0.6520404999610037,both,0.0,
S004,1.0,10,練習,Congruent,y,1.0,70.0521402999293,70.85359049995895,0.8014502000296488,練習,Congruent,1.0,0.8014502000296488,both,0.0,
S004,1.0,11,正式,Congruent,b,1.0,86.10616570001002,86.82403030002024,0.7178646000102162,正式,Congruent,1.0,0.7178646000102162,both,0.0,
S004,1.0,12,正式,Congruent,y,1.0,92.09113929991145,92.95930709992535,0.8681678000139073,正式,Congruent,1.0,0.8681678000139073,both,0.0,
S004,1.0,13,正式,Congruent,b,1.0,98.09323679993396,98.9270994999679,0.8338627000339329,正式,Congruent,1.0,0.8338627000339329,both,0.0,
S004,1.0,14,正式,Congruent,y,1.0,104.09472289995756,104.74677249998786,0.6520496000302956,正式,Congruent,1.0,0.6520496000302956,both,0.0,
S004,1.0,15,正式,Congruent,y,1.0,110.09633869992103,111.0141923999181,0.9178536999970676,正式,Congruent,1.0,0.9178536999970676,both,0.0,
S004,1.0,16,正式,Congruent,b,1.0,116.0981071999995,116.91542480001226,0.8173176000127569,正式,Congruent,1.0,0.8173176000127569,both,0.0,
S004,1.0,17,正式,Congruent,y,1.0,122.09921859996392,122.81786959990858,0.7186509999446571,正式,Congruent,1.0,0.7186509999446571,both,0.0,
S004,1.0,18,正式,Congruent,b,1.0,128.10096700000577,128.8668658999959,0.7658988999901339,正式,Congruent,1.0,0.7658988999901339,both,0.0,
S004,1.0,19,正式,Congruent,b,1.0,134.10293149994686,134.75425250001717,0.6513210000703111,正式,Congruent,1.0,0.6513210000703111,both,0.0,
S004,1.0,20,正式,Congruent,y,1.0,140.10444199992344,141.03957929997705,0.9351373000536114,正式,Congruent,1.0,0.9351373000536114,both,0.0,
S004,1.0,21,正式,Congruent,b,1.0,156.0918149999343,156.91038719995413,0.8185722000198439,正式,Congruent,1.0,0.8185722000198439,both,0.0,
S004,1.0,22,正式,Congruent,y,1.0,162.09363509994,162.79518349992577,0.7015483999857679,正式,Congruent,1.0,0.7015483999857679,both,0.0,
S004,1.0,23,正式,Congruent,b,1.0,168.09542129992042,168.8297417999711,0.7343205000506714,正式,Congruent,1.0,0.7343205000506714,both,0.0,
S004,1.0,24,正式,Congruent,y,1.0,174.09723850002047,174.84750839998014,0.750269899959676,正式,Congruent,1.0,0.750269899959676,both,0.0,
S004,1.0,25,正式,Congruent,b,1.0,180.09825929999352,180.60032999992836,0.5020706999348477,正式,Congruent,1.0,0.5020706999348477,both,0.0,
S004,1.0,26,正式,Congruent,b,0.0,186.0999671999598,187.06795870000497,0.9679915000451728,正式,Congruent,0.0,0.9679915000451728,both,0.0,
S004,1.0,27,正式,Congruent,b,1.0,192.10146349994463,192.7689044999424,0.6674409999977797,正式,Congruent,1.0,0.6674409999977797,both,0.0,
S004,1.0,28,正式,Congruent,y,1.0,198.1036213999614,198.8047764999792,0.701155100017786,正式,Congruent,1.0,0.701155100017786,both,0.0,
S004,1.0,29,正式,Congruent,b,1.0,204.1050209000241,204.77329739998095,0.6682764999568462,正式,Congruent,1.0,0.6682764999568462,both,0.0,
S004,1.0,30,正式,Congruent,y,1.0,210.1062914999202,210.80897110002115,0.7026796001009643,正式,Congruent,1.0,0.7026796001009643,both,0.0,
S004,1.0,31,正式,Congruent,b,1.0,226.094651499996,227.06148149992808,0.966829999932088,正式,Congruent,1.0,0.966829999932088,both,0.0,
S004,1.0,32,正式,Congruent,b,1.0,232.09559639997315,232.74717549991328,0.6515790999401361,正式,Congruent,1.0,0.6515790999401361,both,0.0,
S004,1.0,33,正式,Congruent,y,1.0,238.09757619991436,238.59857159992683,0.5009954000124708,正式,Congruent,1.0,0.5009954000124708,both,0.0,
S004,1.0,34,正式,Congruent,y,1.0,244.0991788000101,244.7518549999222,0.6526761999120936,正式,Congruent,1.0,0.6526761999120936,both,0.0,
S004,1.0,35,正式,Congruent,y,1.0,250.10065029992256,250.66961999994237,0.5689697000198066,正式,Congruent,1.0,0.5689697000198066,both,0.0,
S004,1.0,36,正式,Congruent,b,1.0,256.1025815999601,256.8373623000225,0.7347807000624016,正式,Congruent,1.0,0.7347807000624016,both,0.0,
S004,1.0,37,正式,Congruent,b,1.0,262.1031628999626,262.8052233000053,0.7020604000426829,正式,Congruent,1.0,0.7020604000426829,both,0.0,
S004,1.0,38,正式,Congruent,y,1.0,268.1049535999773,268.9898594999686,0.8849058999912813,正式,Congruent,1.0,0.8849058999912813,both,0.0,
S004,1.0,39,正式,Congruent,y,1.0,274.1066963999765,274.95840240002144,0.8517060000449419,正式,Congruent,1.0,0.8517060000449419,both,0.0,
S004,1.0,40,正式,Congruent,b,1.0,280.0917262999574,280.8265004999703,0.7347742000129074,正式,Congruent,1.0,0.7347742000129074,both,0.0,
S004,1.0,41,正式,Congruent,y,1.0,296.0964600999141,296.9298257000046,0.8333656000904739,正式,Congruent,1.0,0.8333656000904739,both,0.0,
S004,1.0,42,正式,Congruent,b,1.0,302.0978543999372,302.7501845000079,0.6523301000706851,正式,Congruent,1.0,0.6523301000706851,both,0.0,
S004,1.0,43,正式,Congruent,y,1.0,308.0997769999085,308.8008574999403,0.7010805000318214,正式,Congruent,1.0,0.7010805000318214,both,0.0,
S004,1.0,44,正式,Congruent,b,1.0,314.10081590001937,314.80242269998416,0.701606799964793,正式,Congruent,1.0,0.701606799964793,both,0.0,
S004,1.0,45,正式,Congruent,b,1.0,320.10293049993925,320.80456029996276,0.701629800023511,正式,Congruent,1.0,0.701629800023511,both,0.0,
S004,1.0,46,正式,Congruent,y,1.0,326.1041403999552,326.9894075000193,0.8852671000640839,正式,Congruent,1.0,0.8852671000640839,both,0.0,
S004,1.0,47,正式,Congruent,b,1.0,332.10632989997976,332.8083248999901,0.7019950000103563,正式,Congruent,1.0,0.7019950000103563,both,0.0,
S004,1.0,48,正式,Congruent,y,1.0,338.09024799999315,338.7575030999724,0.6672550999792293,正式,Congruent,1.0,0.6672550999792293,both,0.0,
S004,1.0,49,正式,Congruent,b,1.0,344.0924812000012,344.7780790999532,0.6855978999519721,正式,Congruent,1.0,0.6855978999519721,both,0.0,
S004,1.0,50,正式,Congruent,y,1.0,350.0947023999179,350.69561639998574,0.6009140000678599,正式,Congruent,1.0,0.6009140000678599,both,0.0,
S004,1.0,51,正式,Congruent,y,1.0,366.0987406999338,366.8340247999876,0.7352841000538319,正式,Congruent,1.0,0.7352841000538319,both,0.0,
S004,1.0,52,正式,Congruent,b,1.0,372.10039599996526,372.8689626000123,0.7685666000470519,正式,Congruent,1.0,0.7685666000470519,both,0.0,
S004,1.0,53,正式,Congruent,b,1.0,378.1020348999882,378.86927059991285,0.7672356999246404,正式,Congruent,1.0,0.7672356999246404,both,0.0,
S004,1.0,54,正式,Congruent,b,1.0,384.10262469993904,384.7379495999776,0.6353249000385404,正式,Congruent,1.0,0.6353249000385404,both,0.0,
S004,1.0,55,正式,Congruent,y,1.0,390.1047334999312,390.7395930999192,0.6348595999879763,正式,Congruent,1.0,0.6348595999879763,both,0.0,
S004,1.0,56,正式,Congruent,b,1.0,396.1066722999094,397.0748616999481,0.968189400038682,正式,Congruent,1.0,0.968189400038682,both,0.0,
S004,1.0,57,正式,Congruent,b,1.0,402.0918995999964,402.7265751999803,0.6346755999838933,正式,Congruent,1.0,0.6346755999838933,both,0.0,
S004,1.0,58,正式,Congruent,b,0.0,408.0922256999184,408.7270513999975,0.6348257000790909,正式,Congruent,0.0,0.6348257000790909,both,0.0,
S004,1.0,59,正式,Congruent,y,1.0,414.0947858999716,414.76161149994005,0.6668255999684334,正式,Congruent,1.0,0.6668255999684334,both,0.0,
S004,1.0,60,正式,Congruent,y,1.0,420.0968197999755,420.86365129996557,0.7668314999900758,正式,Congruent,1.0,0.7668314999900758,both,0.0,
S004,2.0,61,練習,Incongruent,b,1.0,553.8824165000115,554.9857022999786,1.103285799967125,練習,Incongruent,1.0,1.103285799967125,both,0.0,
S004,2.0,62,練習,Incongruent,y,1.0,559.8847628999501,560.9207616000203,1.035998700070195,練習,Incongruent,1.0,1.035998700070195,both,0.0,
S004,2.0,63,練習,Incongruent,b,0.0,565.8858620999381,567.070252400008,1.1843903000699356,練習,Incongruent,0.0,1.1843903000699356,both,0.0,
S004,2.0,64,練習,Incongruent,b,1.0,571.8876315000234,572.9395707999356,1.051939299912192,練習,Incongruent,1.0,1.051939299912192,both,0.0,
S004,2.0,65,練習,Incongruent,y,1.0,577.8893808999564,578.6243395999772,0.7349587000207976,練習,Incongruent,1.0,0.7349587000207976,both,0.0,
S004,2.0,66,練習,Incongruent,y,1.0,583.8906112000113,585.0422783999238,1.151667199912481,練習,Incongruent,1.0,1.151667199912481,both,0.0,
S004,2.0,67,練習,Incongruent,b,1.0,589.8924851999618,590.610639099963,0.718153900001198,練習,Incongruent,1.0,0.718153900001198,both,0.0,
S004,2.0,68,練習,Incongruent,y,1.0,595.8943160999333,596.6456347999629,0.7513187000295147,練習,Incongruent,1.0,0.7513187000295147,both,0.0,
S004,2.0,69,練習,Incongruent,b,1.0,601.8955855999375,602.8962483999785,1.0006628000410274,練習,Incongruent,1.0,1.0006628000410274,both,0.0,
S004,2.0,70,練習,Incongruent,b,0.0,607.8807186000049,608.6818628999172,0.8011442999122664,練習,Incongruent,0.0,0.8011442999122664,both,0.0,
S004,2.0,71,正式,Incongruent,y,0.0,623.9340063999407,624.8705005999655,0.9364942000247538,正式,Incongruent,0.0,0.9364942000247538,both,0.0,
S004,2.0,72,正式,Incongruent,b,1.0,629.9365157999564,630.9548549000174,1.0183391000609845,正式,Incongruent,1.0,1.0183391000609845,both,0.0,
S004,2.0,73,正式,Incongruent,b,1.0,635.9216320000123,636.555862499983,0.6342304999707267,正式,Incongruent,1.0,0.6342304999707267,both,0.0,
S004,2.0,74,正式,Incongruent,b,1.0,641.9230225000065,642.6411086999578,0.7180861999513581,正式,Incongruent,1.0,0.7180861999513581,both,0.0,
S004,2.0,75,正式,Incongruent,b,1.0,647.9245668000076,648.7255701000104,0.8010033000027761,正式,Incongruent,1.0,0.8010033000027761,both,0.0,
S004,2.0,76,正式,Incongruent,y,1.0,653.9262429999653,654.6297629999463,0.7035199999809265,正式,Incongruent,1.0,0.7035199999809265,both,0.0,
S004,2.0,77,正式,Incongruent,b,0.0,659.9280254999176,660.5953743999125,0.6673488999949768,正式,Incongruent,0.0,0.6673488999949768,both,0.0,
S004,2.0,78,正式,Incongruent,y,1.0,665.9296608999139,666.6475451999577,0.7178843000438064,正式,Incongruent,1.0,0.7178843000438064,both,0.0,
S004,2.0,79,正式,Incongruent,b,1.0,671.9318505999399,672.833613499999,0.9017629000591114,正式,Incongruent,1.0,0.9017629000591114,both,0.0,
S004,2.0,80,正式,Incongruent,y,1.0,677.9329959999304,678.6345073999837,0.7015114000532776,正式,Incongruent,1.0,0.7015114000532776,both,0.0,
S004,2.0,81,正式,Incongruent,b,1.0,693.9370861999923,694.6391465999186,0.7020603999262676,正式,Incongruent,1.0,0.7020603999262676,both,0.0,
S004,2.0,82,正式,Incongruent,y,1.0,699.9218915000092,700.6066084000049,0.6847168999956921,正式,Incongruent,1.0,0.6847168999956921,both,0.0,
S004,2.0,83,正式,Incongruent,y,1.0,705.9238543999381,707.0762721999781,1.1524178000399845,正式,Incongruent,1.0,1.1524178000399845,both,0.0,
S004,2.0,84,正式,Incongruent,y,1.0,711.92477589997,712.6763486999553,0.751572799985297,正式,Incongruent,1.0,0.751572799985297,both,0.0,
S004,2.0,85,正式,Incongruent,y,1.0,717.9279674999416,718.8289794999873,0.9010120000457392,正式,Incongruent,1.0,0.9010120000457392,both,0.0,
S004,2.0,86,正式,Incongruent,y,1.0,723.9283288000152,724.7149788999232,0.7866500999080017,正式,Incongruent,1.0,0.7866500999080017,both,0.0,
S004,2.0,87,正式,Incongruent,y,1.0,729.9302027999656,730.6657443000004,0.7355415000347421,正式,Incongruent,1.0,0.7355415000347421,both,0.0,
S004,2.0,88,正式,Incongruent,b,1.0,735.9316697999602,736.6337173000211,0.7020475000608712,正式,Incongruent,1.0,0.7020475000608712,both,0.0,
S004,2.0,89,正式,Incongruent,y,1.0,741.9333289000206,743.0676842000103,1.1343552999896929,正式,Incongruent,1.0,1.1343552999896929,both,0.0,
S004,2.0,90,正式,Incongruent,y,1.0,747.9350989999948,748.6871274999576,0.752028499962762,正式,Incongruent,1.0,0.752028499962762,both,0.0,
S004,2.0,91,正式,Incongruent,b,1.0,763.9227999999421,765.2076711999252,1.284871199983172,正式,Incongruent,1.0,1.284871199983172,both,0.0,
S004,2.0,92,正式,Incongruent,b,1.0,769.9241521999938,770.6605667999247,0.7364145999308676,正式,Incongruent,1.0,0.7364145999308676,both,0.0,
S004,2.0,93,正式,Incongruent,b,1.0,775.926225299947,776.6444282999728,0.7182030000258237,正式,Incongruent,1.0,0.7182030000258237,both,0.0,
S004,2.0,94,正式,Incongruent,y,1.0,781.9274721000111,782.7803892999655,0.8529171999543905,正式,Incongruent,1.0,0.8529171999543905,both,0.0,
S004,2.0,95,正式,Incongruent,y,1.0,787.9301456999965,788.6631165000144,0.732970800017938,正式,Incongruent,1.0,0.732970800017938,both,0.0,
S004,2.0,96,正式,Incongruent,b,1.0,793.9308861999307,794.73167499993,0.8007887999992818,正式,Incongruent,1.0,0.8007887999992818,both,0.0,
S004,2.0,97,正式,Incongruent,b,1.0,799.9321227999171,800.633756199968,0.7016334000509232,正式,Incongruent,1.0,0.7016334000509232,both,0.0,
S004,2.0,98,正式,Incongruent,b,1.0,805.934208599967,806.5846529999981,0.6504444000311196,正式,Incongruent,1.0,0.6504444000311196,both,0.0,
S004,2.0,99,正式,Incongruent,b,1.0,811.9359206999652,812.6706479999702,0.7347273000050336,正式,Incongruent,1.0,0.7347273000050336,both,0.0,
S004,2.0,100,正式,Incongruent,b,1.0,817.936991399969,818.5895056999288,0.6525142999598756,正式,Incongruent,1.0,0.6525142999598756,both,0.0,
S004,2.0,101,正式,Incongruent,b,1.0,833.9246294000186,834.6772215999663,0.752592199947685,正式,Incongruent,1.0,0.752592199947685,both,0.0,
S004,2.0,102,正式,Incongruent,y,1.0,839.926497999928,840.760062300018,0.8335643000900745,正式,Incongruent,1.0,0.8335643000900745,both,0.0,
S004,2.0,103,正式,Incongruent,b,1.0,845.9279940999113,846.6125744999154,0.6845804000040516,正式,Incongruent,1.0,0.6845804000040516,both,0.0,
S004,2.0,104,正式,Incongruent,y,1.0,851.9297754999716,852.6651614999864,0.7353860000148416,正式,Incongruent,1.0,0.7353860000148416,both,0.0,
S004,2.0,105,正式,Incongruent,b,1.0,857.9312372999266,858.8162701999536,0.8850329000269994,正式,Incongruent,1.0,0.8850329000269994,both,0.0,
S004,2.0,106,正式,Incongruent,y,1.0,863.932639000006,864.7184582999907,0.7858192999847233,正式,Incongruent,1.0,0.7858192999847233,both,0.0,
S004,2.0,107,正式,Incongruent,y,1.0,869.9345737999538,870.6192821000004,0.6847083000466228,正式,Incongruent,1.0,0.6847083000466228,both,0.0,
S004,2.0,108,正式,Incongruent,y,1.0,875.9360202000244,876.6376945999218,0.7016743998974562,正式,Incongruent,1.0,0.7016743998974562,both,0.0,
S004,2.0,109,正式,Incongruent,b,1.0,881.9214829999255,883.0724021999631,1.150919200037606,正式,Incongruent,1.0,1.150919200037606,both,0.0,
S004,2.0,110,正式,Incongruent,b,0.0,887.9222307999153,889.0071269000182,1.0848961001029238,正式,Incongruent,0.0,1.0848961001029238,both,0.0,
S004,2.0,111,正式,Incongruent,,0.0,903.9274494999554,,,正式,Incongruent,0.0,,both,,
S004,2.0,112,正式,Incongruent,y,1.0,909.9285228999796,910.613345199963,0.6848222999833524,正式,Incongruent,1.0,0.6848222999833524,both,0.0,
S004,2.0,113,正式,Incongruent,b,1.0,915.9299939000048,916.6643244000152,0.734330500010401,正式,Incongruent,1.0,0.734330500010401,both,0.0,
S004,2.0,114,正式,Incongruent,y,1.0,921.9317958999892,922.9838875000133,1.0520916000241414,正式,Incongruent,1.0,1.0520916000241414,both,0.0,
S004,2.0,115,正式,Incongruent,y,1.0,927.9332765999716,928.633820899995,0.7005443000234663,正式,Incongruent,1.0,0.7005443000234663,both,0.0,
S004,2.0,116,正式,Incongruent,y,1.0,933.935066199978,934.7698923000136,0.8348261000355706,正式,Incongruent,1.0,0.8348261000355706,both,0.0,
S004,2.0,117,正式,Incongruent,b,1.0,939.9362206999213,940.7369757000124,0.8007550000911579,正式,Incongruent,1.0,0.8007550000911579,both,0.0,
S004,2.0,118,正式,Incongruent,b,1.0,945.9218152000104,946.5906277999749,0.6688125999644399,正式,Incongruent,1.0,0.6688125999644399,both,0.0,
S004,2.0,119,正式,Incongruent,y,1.0,951.9233655999416,952.6261318000035,0.7027662000618875,正式,Incongruent,1.0,0.7027662000618875,both,0.0,
S004,2.0,120,正式,Incongruent,b,0.0,957.9250027999516,958.8274049999892,0.9024022000376136,正式,Incongruent,0.0,0.9024022000376136,both,0.0,
S005,1.0,1,練習,Congruent,y,1.0,16.054578999988735,17.152113900054246,1.0975349000655117,練習,Congruent,1.0,1.0975349000655117,both,0.0,
S005,1.0,2,練習,Congruent,b,1.0,22.056621800060384,23.006766599952243,0.9501447998918592,練習,Congruent,1.0,0.9501447998918592,both,0.0,
S005,1.0,3,練習,Congruent,y,1.0,28.0582688000286,28.775581800029613,0.7173130000010133,練習,Congruent,1.0,0.7173130000010133,both,0.0,
S005,1.0,4,練習,Congruent,y,1.0,34.05907610000577,35.044637999963015,0.9855618999572472,練習,Congruent,1.0,0.9855618999572472,both,0.0,
S005,1.0,5,練習,Congruent,b,0.0,40.06084769999143,40.8965157000348,0.8356680000433698,練習,Congruent,0.0,0.8356680000433698,both,0.0,
S005,1.0,6,練習,Congruent,b,1.0,46.0633639000589,47.46389250003267,1.400528599973768,練習,Congruent,1.0,1.400528599973768,both,0.0,
S005,1.0,7,練習,Congruent,,0.0,52.06491750001442,,,練習,Congruent,0.0,,both,,
S005,1.0,8,練習,Congruent,,0.0,58.06663010001648,,,練習,Congruent,0.0,,both,,
S005,1.0,9,練習,Congruent,b,1.0,64.05158960004337,65.51866379997227,1.467074199928902,練習,Congruent,1.0,1.467074199928902,both,0.0,
S005,1.0,10,練習,Congruent,b,1.0,70.05287490005139,71.27060120005626,1.2177263000048697,練習,Congruent,1.0,1.2177263000048697,both,0.0,
S005,1.0,11,正式,Congruent,y,1.0,86.10679270001128,86.95757159998175,0.8507788999704644,正式,Congruent,1.0,0.8507788999704644,both,0.0,
S005,1.0,12,正式,Congruent,b,1.0,92.09175280004274,93.01051379996352,0.918760999920778,正式,Congruent,1.0,0.918760999920778,both,0.0,
S005,1.0,13,正式,Congruent,b,1.0,98.09418040001763,98.97817110002505,0.8839907000074163,正式,Congruent,1.0,0.8839907000074163,both,0.0,
S005,1.0,14,正式,Congruent,y,1.0,104.0951650000643,104.89612599997781,0.8009609999135137,正式,Congruent,1.0,0.8009609999135137,both,0.0,
S005,1.0,15,正式,Congruent,,0.0,110.09646959998643,,,正式,Congruent,0.0,,both,,
S005,1.0,16,正式,Congruent,y,1.0,116.09859940002208,117.33276640006808,1.234167000046,正式,Congruent,1.0,1.234167000046,both,0.0,
S005,1.0,17,正式,Congruent,b,1.0,122.1010580000002,122.96783870004583,0.8667807000456378,正式,Congruent,1.0,0.8667807000456378,both,0.0,
S005,1.0,18,正式,Congruent,y,1.0,128.10139910003636,129.45305859996006,1.3516594999236986,正式,Congruent,1.0,1.3516594999236986,both,0.0,
S005,1.0,19,正式,Congruent,,0.0,134.1028991000494,,,正式,Congruent,0.0,,both,,
S005,1.0,20,正式,Congruent,y,1.0,140.1053296000464,141.58991900004912,1.4845894000027329,正式,Congruent,1.0,1.4845894000027329,both,0.0,
S005,1.0,21,正式,Congruent,b,1.0,156.093086100067,157.4765277999686,1.3834416999015955,正式,Congruent,1.0,1.3834416999015955,both,0.0,
S005,1.0,22,正式,Congruent,b,1.0,162.09453999996185,163.58004519995302,1.4855051999911666,正式,Congruent,1.0,1.4855051999911666,both,0.0,
S005,1.0,23,正式,Congruent,b,1.0,168.0963254000526,168.81311740004458,0.7167919999919832,正式,Congruent,1.0,0.7167919999919832,both,0.0,
S005,1.0,24,正式,Congruent,b,1.0,174.09742450003978,175.43118129996583,1.33375679992605,正式,Congruent,1.0,1.33375679992605,both,0.0,
S005,1.0,25,正式,Congruent,b,1.0,180.0984890999971,180.8166192000499,0.7181301000528038,正式,Congruent,1.0,0.7181301000528038,both,0.0,
S005,1.0,26,正式,Congruent,b,1.0,186.10035520000383,187.00232790003065,0.9019727000268176,正式,Congruent,1.0,0.9019727000268176,both,0.0,
S005,1.0,27,正式,Congruent,y,1.0,192.10177249996923,193.02233680000063,0.9205643000314012,正式,Congruent,1.0,0.9205643000314012,both,0.0,
S005,1.0,28,正式,Congruent,b,0.0,198.1039410000667,199.03976840001997,0.9358273999532684,正式,Congruent,0.0,0.9358273999532684,both,0.0,
S005,1.0,29,正式,Congruent,,0.0,204.10564249998424,,,正式,Congruent,0.0,,both,,
S005,1.0,30,正式,Congruent,,0.0,210.0908476000186,,,正式,Congruent,0.0,,both,,
S005,1.0,31,正式,Congruent,y,1.0,226.09497630002443,227.06248389999382,0.9675075999693944,正式,Congruent,1.0,0.9675075999693944,both,0.0,
S005,1.0,32,正式,Congruent,b,0.0,232.09661160002,233.14941179996825,1.0528001999482512,正式,Congruent,0.0,1.0528001999482512,both,0.0,
S005,1.0,33,正式,Congruent,y,1.0,238.09786640002855,239.21668049995785,1.1188140999292957,正式,Congruent,1.0,1.1188140999292957,both,0.0,
S005,1.0,34,正式,Congruent,,0.0,244.1000935999909,,,正式,Congruent,0.0,,both,,
S005,1.0,35,正式,Congruent,,0.0,250.10100180003792,,,正式,Congruent,0.0,,both,,
S005,1.0,36,正式,Congruent,y,1.0,256.102562300046,257.23781259998213,1.1352502999361604,正式,Congruent,1.0,1.1352502999361604,both,0.0,
S005,1.0,37,正式,Congruent,b,1.0,262.10416280000936,262.83811350003816,0.7339507000287995,正式,Congruent,1.0,0.7339507000287995,both,0.0,
S005,1.0,38,正式,Congruent,,0.0,268.10569160000887,,,正式,Congruent,0.0,,both,,
S005,1.0,39,正式,Congruent,,0.0,274.091350600007,,,正式,Congruent,0.0,,both,,
S005,1.0,40,正式,Congruent,,0.0,280.092775600031,,,正式,Congruent,0.0,,both,,
S005,1.0,41,正式,Congruent,y,1.0,296.096819999977,297.0478329999605,0.9510129999835044,正式,Congruent,1.0,0.9510129999835044,both,0.0,
S005,1.0,42,正式,Congruent,,0.0,302.09852400003,,,正式,Congruent,0.0,,both,,
S005,1.0,43,正式,Congruent,b,1.0,308.10033779998776,309.4682028000243,1.367865000036545,正式,Congruent,1.0,1.367865000036545,both,0.0,
S005,1.0,44,正式,Congruent,y,1.0,314.1023032000521,315.17080039996654,1.0684971999144182,正式,Congruent,1.0,1.0684971999144182,both,0.0,
S005,1.0,45,正式,Congruent,,0.0,320.1034243999748,,,正式,Congruent,0.0,,both,,
S005,1.0,46,正式,Congruent,b,0.0,326.1052069000434,327.3565123999724,1.2513054999290034,正式,Congruent,0.0,1.2513054999290034,both,0.0,
S005,1.0,47,正式,Congruent,y,1.0,332.1067158000078,333.5921501000412,1.4854343000333756,正式,Congruent,1.0,1.4854343000333756,both,0.0,
S005,1.0,48,正式,Congruent,,0.0,338.0918103000149,,,正式,Congruent,0.0,,both,,
S005,1.0,49,正式,Congruent,,0.0,344.0934262999799,,,正式,Congruent,0.0,,both,,
S005,1.0,50,正式,Congruent,,0.0,350.0948904999532,,,正式,Congruent,0.0,,both,,
S005,1.0,51,正式,Congruent,b,1.0,366.09966199996416,367.1517875000136,1.052125500049442,正式,Congruent,1.0,1.052125500049442,both,0.0,
S005,1.0,52,正式,Congruent,,0.0,372.1014702999965,,,正式,Congruent,0.0,,both,,
S005,1.0,53,正式,Congruent,,0.0,378.1034010000294,,,正式,Congruent,0.0,,both,,
S005,1.0,54,正式,Congruent,,0.0,384.1044583000476,,,正式,Congruent,0.0,,both,,
S005,1.0,55,正式,Congruent,,0.0,390.1056343000382,,,正式,Congruent,0.0,,both,,
S005,1.0,56,正式,Congruent,b,1.0,396.09109610004816,397.2419908000156,1.1508946999674663,正式,Congruent,1.0,1.1508946999674663,both,0.0,
S005,1.0,57,正式,Congruent,,0.0,402.0925681999652,,,正式,Congruent,0.0,,both,,
S005,1.0,58,正式,Congruent,b,1.0,408.0940897000255,409.26156210002955,1.1674724000040442,正式,Congruent,1.0,1.1674724000040442,both,0.0,
S005,1.0,59,正式,Congruent,,0.0,414.0958311000141,,,正式,Congruent,0.0,,both,,
S005,1.0,60,正式,Congruent,b,1.0,420.0974744999549,421.11595879995735,1.0184843000024555,正式,Congruent,1.0,1.0184843000024555,both,0.0,
S005,2.0,61,練習,Incongruent,b,1.0,516.6729914000025,517.4738343000645,0.8008429000619799,練習,Incongruent,1.0,0.8008429000619799,both,0.0,
S005,2.0,62,練習,Incongruent,b,1.0,522.6750946999528,523.5109498000238,0.8358551000710577,練習,Incongruent,1.0,0.8358551000710577,both,0.0,
S005,2.0,63,練習,Incongruent,y,1.0,528.6766375000589,529.4617326000007,0.7850950999418274,練習,Incongruent,1.0,0.7850950999418274,both,0.0,
S005,2.0,64,練習,Incongruent,b,1.0,534.6606716000242,535.3619427999947,0.7012711999705061,練習,Incongruent,1.0,0.7012711999705061,both,0.0,
S005,2.0,65,練習,Incongruent,b,1.0,540.6631809000392,541.6644714999711,1.0012905999319628,練習,Incongruent,1.0,1.0012905999319628,both,0.0,
S005,2.0,66,練習,Incongruent,y,1.0,546.6640326000052,547.5493069000077,0.885274300002493,練習,Incongruent,1.0,0.885274300002493,both,0.0,
S005,2.0,67,練習,Incongruent,y,1.0,552.6671641999856,553.6510306999553,0.9838664999697356,練習,Incongruent,1.0,0.9838664999697356,both,0.0,
S005,2.0,68,練習,Incongruent,y,1.0,558.6684226000216,559.5858721999684,0.917449599946849,練習,Incongruent,1.0,0.917449599946849,both,0.0,
S005,2.0,69,練習,Incongruent,y,1.0,564.6701837000437,565.8210210000398,1.1508372999960557,練習,Incongruent,1.0,1.1508372999960557,both,0.0,
S005,2.0,70,練習,Incongruent,y,1.0,570.670760900015,571.6720226999605,1.001261799945496,練習,Incongruent,1.0,1.001261799945496,both,0.0,
S005,2.0,71,正式,Incongruent,y,1.0,586.7251904000295,587.6596307000145,0.934440299984999,正式,Incongruent,1.0,0.934440299984999,both,0.0,
S005,2.0,72,正式,Incongruent,,0.0,592.710608500056,,,正式,Incongruent,0.0,,both,,
S005,2.0,73,正式,Incongruent,,0.0,598.7123098999728,,,正式,Incongruent,0.0,,both,,
S005,2.0,74,正式,Incongruent,b,1.0,604.7137111000484,605.4827413000166,0.7690301999682561,正式,Incongruent,1.0,0.7690301999682561,both,0.0,
S005,2.0,75,正式,Incongruent,y,1.0,610.7153723000083,612.0659730000189,1.3506007000105456,正式,Incongruent,1.0,1.3506007000105456,both,0.0,
S005,2.0,76,正式,Incongruent,y,1.0,616.7166081999894,618.1351346999872,1.4185264999978244,正式,Incongruent,1.0,1.4185264999978244,both,0.0,
S005,2.0,77,正式,Incongruent,y,1.0,622.7178670000285,623.9695123999845,1.2516453999560326,正式,Incongruent,1.0,1.2516453999560326,both,0.0,
S005,2.0,78,正式,Incongruent,,0.0,628.7214965999592,,,正式,Incongruent,0.0,,both,,
S005,2.0,79,正式,Incongruent,,0.0,634.72174920002,,,正式,Incongruent,0.0,,both,,
S005,2.0,80,正式,Incongruent,y,1.0,640.7236800000537,641.7425802999642,1.018900299910456,正式,Incongruent,1.0,1.018900299910456,both,0.0,
S005,2.0,81,正式,Incongruent,b,1.0,656.7110916000092,657.5440136999823,0.8329220999730751,正式,Incongruent,1.0,0.8329220999730751,both,0.0,
S005,2.0,82,正式,Incongruent,b,1.0,662.7109648999758,663.6800746000372,0.9691097000613808,正式,Incongruent,1.0,0.9691097000613808,both,0.0,
S005,2.0,83,正式,Incongruent,b,1.0,668.7144405000145,670.0487134000286,1.3342729000141844,正式,Incongruent,1.0,1.3342729000141844,both,0.0,
S005,2.0,84,正式,Incongruent,b,1.0,674.7150160999736,675.5354185999604,0.8204024999868125,正式,Incongruent,1.0,0.8204024999868125,both,0.0,
S005,2.0,85,正式,Incongruent,b,1.0,680.7179811999667,681.3867128000129,0.6687316000461578,正式,Incongruent,1.0,0.6687316000461578,both,0.0,
S005,2.0,86,正式,Incongruent,y,1.0,686.7193557999562,687.4874988000374,0.7681430000811815,正式,Incongruent,1.0,0.7681430000811815,both,0.0,
S005,2.0,87,正式,Incongruent,b,1.0,692.7210957000498,693.6061379000312,0.8850421999813989,正式,Incongruent,1.0,0.8850421999813989,both,0.0,
S005,2.0,88,正式,Incongruent,y,1.0,698.7228529000422,700.090136499959,1.3672835999168456,正式,Incongruent,1.0,1.3672835999168456,both,0.0,
S005,2.0,89,正式,Incongruent,y,1.0,704.723881999962,705.6749433999648,0.9510614000028,正式,Incongruent,1.0,0.9510614000028,both,0.0,
S005,2.0,90,正式,Incongruent,,0.0,710.7256177000236,,,正式,Incongruent,0.0,,both,,
S005,2.0,91,正式,Incongruent,b,1.0,726.7132287999848,727.9484533000505,1.2352245000656694,正式,Incongruent,1.0,1.2352245000656694,both,0.0,
S005,2.0,92,正式,Incongruent,b,1.0,732.7150297999615,734.1355732000666,1.420543400105089,正式,Incongruent,1.0,1.420543400105089,both,0.0,
S005,2.0,93,正式,Incongruent,b,1.0,738.7163635999896,739.5520308000268,0.8356672000372782,正式,Incongruent,1.0,0.8356672000372782,both,0.0,
S005,2.0,94,正式,Incongruent,y,1.0,744.718850000063,745.7513014000142,1.032451399951242,正式,Incongruent,1.0,1.032451399951242,both,0.0,
S005,2.0,95,正式,Incongruent,y,1.0,750.7197257999796,751.8883503000252,1.1686245000455528,正式,Incongruent,1.0,1.1686245000455528,both,0.0,
S005,2.0,96,正式,Incongruent,b,1.0,756.7217935000081,757.5723802000284,0.850586700020358,正式,Incongruent,1.0,0.850586700020358,both,0.0,
S005,2.0,97,正式,Incongruent,y,1.0,762.7230164000066,763.6404649000615,0.9174485000548884,正式,Incongruent,1.0,0.9174485000548884,both,0.0,
S005,2.0,98,正式,Incongruent,b,1.0,768.7239274999592,769.5583963000681,0.8344688001088798,正式,Incongruent,1.0,0.8344688001088798,both,0.0,
S005,2.0,99,正式,Incongruent,y,0.0,774.7267774000065,775.8442121000262,1.1174347000196576,正式,Incongruent,0.0,1.1174347000196576,both,0.0,
S005,2.0,100,正式,Incongruent,b,1.0,780.711427400005,781.4290191000327,0.7175917000276968,正式,Incongruent,1.0,0.7175917000276968,both,0.0,
S005,2.0,101,正式,Incongruent,,0.0,796.7155016000615,,,正式,Incongruent,0.0,,both,,
S005,2.0,102,正式,Incongruent,y,1.0,802.7166903000325,803.5019943000516,0.7853040000190958,正式,Incongruent,1.0,0.7853040000190958,both,0.0,
S005,2.0,103,正式,Incongruent,b,1.0,808.7193118999712,809.4863668000326,0.7670549000613391,正式,Incongruent,1.0,0.7670549000613391,both,0.0,
S005,2.0,104,正式,Incongruent,y,1.0,814.7205647999654,815.7546613999875,1.034096600022167,正式,Incongruent,1.0,1.034096600022167,both,0.0,
S005,2.0,105,正式,Incongruent,b,1.0,820.7218074999982,821.4238190000178,0.7020115000195801,正式,Incongruent,1.0,0.7020115000195801,both,0.0,
S005,2.0,106,正式,Incongruent,y,1.0,826.7238338000607,827.4916158999549,0.767782099894248,正式,Incongruent,1.0,0.767782099894248,both,0.0,
S005,2.0,107,正式,Incongruent,b,1.0,832.7254403999541,833.3943264000118,0.6688860000576824,正式,Incongruent,1.0,0.6688860000576824,both,0.0,
S005,2.0,108,正式,Incongruent,y,1.0,838.7109535000054,839.8448421000503,1.1338886000448838,正式,Incongruent,1.0,1.1338886000448838,both,0.0,
S005,2.0,109,正式,Incongruent,,0.0,844.7114486000501,,,正式,Incongruent,0.0,,both,,
S005,2.0,110,正式,Incongruent,,0.0,850.7132132999832,,,正式,Incongruent,0.0,,both,,
S005,2.0,111,正式,Incongruent,b,1.0,866.7189592999639,867.8020587000065,1.0830994000425562,正式,Incongruent,1.0,1.0830994000425562,both,0.0,
S005,2.0,112,正式,Incongruent,y,1.0,872.7195623000152,874.1213923000032,1.401829999987967,正式,Incongruent,1.0,1.401829999987967,both,0.0,
S005,2.0,113,正式,Incongruent,b,1.0,878.721137000015,879.5555970000569,0.8344600000418723,正式,Incongruent,1.0,0.8344600000418723,both,0.0,
S005,2.0,114,正式,Incongruent,b,1.0,884.7235719000455,885.5396089999704,0.8160370999248698,正式,Incongruent,1.0,0.8160370999248698,both,0.0,
S005,2.0,115,正式,Incongruent,b,1.0,890.7238457000349,891.4921073999722,0.768261699937284,正式,Incongruent,1.0,0.768261699937284,both,0.0,
S005,2.0,116,正式,Incongruent,b,1.0,896.7260203000624,897.3761934000067,0.650173099944368,正式,Incongruent,1.0,0.650173099944368,both,0.0,
S005,2.0,117,正式,Incongruent,y,1.0,902.7109283000464,903.6456876000157,0.9347592999693006,正式,Incongruent,1.0,0.9347592999693006,both,0.0,
S005,2.0,118,正式,Incongruent,,0.0,908.7121412999696,,,正式,Incongruent,0.0,,both,,
S005,2.0,119,正式,Incongruent,b,1.0,914.714551400044,915.9829472999554,1.268395899911411,正式,Incongruent,1.0,1.268395899911411,both,0.0,
S005,2.0,120,正式,Incongruent,y,1.0,920.7157027999638,921.5008453000337,0.7851425000699237,正式,Incongruent,1.0,0.7851425000699237,both,0.0,
